File: GAMRY Chronopotentiometry Charge.DTA
EXPLAIN
TAG	CHRONOP
TITLE	LABEL	Chronopotentiometry Scan 2	Test &Identifier
DATE	LABEL	9/29/2021	Date
TIME	LABEL	10:58:03	Time
NOTES	NOTES	1	&Notes...

PSTAT	PSTAT	REF3000-24102	Potentiostat
IPRESTEP	QUANT	0.00000E+000	Pre-step Current (A)
TPRESTEP	QUANT	2.00000E+000	Pre-step Delay &Time (s)
ISTEP1	QUANT	1.00000E+000	Step 1 Current (A)
TSTEP1	QUANT	1.00000E+004	Step 1 Time (s)
ISTEP2	QUANT	0.00000E+000	Step 2 Current (A)
TSTEP2	QUANT	0.00000E+000	Step 2 Time (s)
SAMPLETIME	QUANT	1.00000E+000	Sa&mple Period (s)
VLIMITLOWER	QUANT	-3.00000E-001	Lower Limit &V (V)
VLIMITUPPER	QUANT	9.50000E-001	Upper Limit &V (V)
DECIMATE	TOGGLE	F	Decimate
AREA	QUANT	2.50000E+001	Electrode &Area (cm^2)
ELECTRODETYPE	SELECTOR	0	Electrode Type
STRIPPING	TOGGLE	F	Used for Stripping
POLARITY	TOGGLE	F	Signal Polarity
EQDELAY	QUANT	1.00000E+000	Equil. &Time (s)
CONDIT	TWOPARAM	F	1.50000E+001	0.00000E+000	Conditionin&g	Time(s)	E(V)
DELAY	TWOPARAM	F	3.00000E+002	1.00000E-001	Init. De&lay	Time(s)	Stab.(mV/s)
SAMPLINGMODE	SELECTOR	1	Sampling &Mode
EOC	QUANT	0	Open Circuit (V)
PSTATMODEL	IQUANT	5	Pstat Model
PSTATSECTION	LABEL	REF3000-24102	Pstat Section
PSTATSERIALNO	LABEL	24102	Pstat Serial Number
CTRLMODE	IQUANT	0	Control Mode
ELECTROMETER	IQUANT	0	RE=0 or CS=1
IESTAB	IQUANT	0	I/E Stability
CASPEED	IQUANT	4	Control Amp Speed
CONVENTION	IQUANT	1	Current Convention
ICHRANGE	IQUANT	2	Ich Range
ICHRANGEMODE	TOGGLE	T	Ich Auto Range
ICHOFFSETENABLE	TOGGLE	F	Ich Offset Enable
ICHOFFSET	QUANT	0	Ich Offset (V)
ICHFILTER	IQUANT	3	Ich Filter
VCHRANGE	IQUANT	3	Vch Range
VCHRANGEMODE	TOGGLE	T	Vch Auto Range
VCHOFFSETENABLE	TOGGLE	F	Vch Offset Enable
VCHOFFSET	QUANT	0	Vch Offset (V)
VCHFILTER	IQUANT	3	Vch Filter
ACHRANGE	IQUANT	2	Ach Range
ACHOFFSETENABLE	TOGGLE	F	Ach Offset Enable
ACHOFFSET	QUANT	0	Ach Offset (V)
ACHFILTER	IQUANT	1	Ach Filter
IERANGELOWERLIMIT	IQUANT	2	I/E Range Lower Limit
IERANGEMODE	TOGGLE	F	I/E AutoRange
IERANGE	IQUANT	12	I/E Range
POSFEEDENABLE	TOGGLE	F	Positive Feedback IR Comp
POSFEEDRESISTANCE	QUANT	0	Positive Feedback Resistance (ohm)
ACHSELECT	IQUANT	0	Ach Select
SENSECABLEID	IQUANT	13	Sense Cable ID
PWRCABLEID	IQUANT	13	Power Cable ID
DCCALDATE	LABEL	8/9/2021	DC Calibration Date
ACCALDATE	LABEL	8/9/2021	AC Calibration Date
THERMOSELECT	IQUANT	1	Thermo Select
FRAMEWORKVERSION	LABEL	7.8.4	Framework Version
INSTRUMENTVERSION	LABEL	4.42	Instrument Version
COMPLIANCEVOLTAGE	IQUANT	0	Compliance Voltage
CURVE	TABLE	1932
	Pt	T	Vf	Im	Vu	Sig	Ach	IERange	Over	Temp
	#	s	V vs. Ref.	A	V	V	V	#	bits	deg C
	0	-1	-1.21150E-001	7.95369E-005	0.00000E+000	-5.00083E-005	1.94896E-003	12	..........a	-327.66
	4	3	6.21310E-002	9.99931E-001	0.00000E+000	1.00005E+000	1.97064E-003	12	..........a	-327.66
	8	7	1.70252E-001	9.99932E-001	0.00000E+000	1.00005E+000	1.96256E-003	12	..........a	-327.66
	12	11	2.78227E-001	9.99930E-001	0.00000E+000	1.00005E+000	1.96779E-003	12	..........a	-327.66
	16	15	3.90457E-001	9.99930E-001	0.00000E+000	1.00005E+000	1.97007E-003	12	..........a	-327.66
	20	19	4.37575E-001	9.99933E-001	0.00000E+000	1.00005E+000	1.96541E-003	12	..........a	-327.66
	24	23	4.53295E-001	9.99931E-001	0.00000E+000	1.00005E+000	1.96596E-003	12	..........a	-327.66
	28	27	4.60260E-001	9.99932E-001	0.00000E+000	1.00005E+000	1.96706E-003	12	..........a	-327.66
	32	31	4.64345E-001	9.99929E-001	0.00000E+000	1.00005E+000	1.96812E-003	12	..........a	-327.66
	36	35	4.67452E-001	9.99924E-001	0.00000E+000	1.00005E+000	1.96404E-003	12	..........a	-327.66
	40	39	4.69785E-001	9.99931E-001	0.00000E+000	1.00005E+000	1.96709E-003	12	..........a	-327.66
	44	43	4.71857E-001	9.99931E-001	0.00000E+000	1.00005E+000	1.96876E-003	12	..........a	-327.66
	48	47	4.73614E-001	9.99933E-001	0.00000E+000	1.00005E+000	1.96574E-003	12	..........a	-327.66
	52	51	4.75098E-001	9.99928E-001	0.00000E+000	1.00005E+000	1.96721E-003	12	..........a	-327.66
	56	55	4.76487E-001	9.99932E-001	0.00000E+000	1.00005E+000	1.96792E-003	12	..........a	-327.66
	60	59	4.77829E-001	9.99927E-001	0.00000E+000	1.00005E+000	1.96951E-003	12	..........a	-327.66
	64	63	4.79063E-001	9.99929E-001	0.00000E+000	1.00005E+000	1.96812E-003	12	..........a	-327.66
	68	67	4.80167E-001	9.99932E-001	0.00000E+000	1.00005E+000	1.96637E-003	12	..........a	-327.66
	72	71	4.81244E-001	9.99923E-001	0.00000E+000	1.00005E+000	1.96639E-003	12	..........a	-327.66
	76	75	4.82265E-001	9.99936E-001	0.00000E+000	1.00005E+000	1.96921E-003	12	..........a	-327.66
	80	79	4.83193E-001	9.99938E-001	0.00000E+000	1.00005E+000	1.97004E-003	12	..........a	-327.66
	84	83	4.84152E-001	9.99935E-001	0.00000E+000	1.00005E+000	1.97377E-003	12	..........a	-327.66
	88	87	4.84997E-001	9.99936E-001	0.00000E+000	1.00005E+000	1.96686E-003	12	..........a	-327.66
	92	91	4.85838E-001	9.99930E-001	0.00000E+000	1.00005E+000	1.96732E-003	12	..........a	-327.66
	96	95	4.86624E-001	9.99940E-001	0.00000E+000	1.00005E+000	1.96941E-003	12	..........a	-327.66
	100	99	4.87411E-001	9.99936E-001	0.00000E+000	1.00005E+000	1.97291E-003	12	..........a	-327.66
	104	103	4.88201E-001	9.99942E-001	0.00000E+000	1.00005E+000	1.96809E-003	12	..........a	-327.66
	108	107	4.88916E-001	9.99946E-001	0.00000E+000	1.00005E+000	1.96847E-003	12	..........a	-327.66
	112	111	4.89683E-001	9.99952E-001	0.00000E+000	1.00005E+000	1.96504E-003	12	..........a	-327.66
	116	115	4.90357E-001	9.99944E-001	0.00000E+000	1.00005E+000	1.96862E-003	12	..........a	-327.66
	120	119	4.91028E-001	9.99946E-001	0.00000E+000	1.00005E+000	1.96346E-003	12	..........a	-327.66
	124	123	4.91684E-001	9.99953E-001	0.00000E+000	1.00005E+000	1.96366E-003	12	..........a	-327.66
	128	127	4.92292E-001	9.99955E-001	0.00000E+000	1.00005E+000	1.96364E-003	12	..........a	-327.66
	132	131	4.92982E-001	9.99962E-001	0.00000E+000	1.00005E+000	1.96007E-003	12	..........a	-327.66
	136	135	4.93525E-001	9.99965E-001	0.00000E+000	1.00005E+000	1.96547E-003	12	..........a	-327.66
	140	139	4.94125E-001	9.99961E-001	0.00000E+000	1.00005E+000	1.96426E-003	12	..........a	-327.66
	144	143	4.94702E-001	9.99960E-001	0.00000E+000	1.00005E+000	1.96151E-003	12	..........a	-327.66
	148	147	4.95270E-001	9.99969E-001	0.00000E+000	1.00005E+000	1.96281E-003	12	..........a	-327.66
	152	151	4.95811E-001	9.99977E-001	0.00000E+000	1.00005E+000	1.96211E-003	12	..........a	-327.66
	156	155	4.96380E-001	9.99972E-001	0.00000E+000	1.00005E+000	1.95751E-003	12	..........a	-327.66
	160	159	4.96900E-001	9.99983E-001	0.00000E+000	1.00005E+000	1.95721E-003	12	..........a	-327.66
	164	163	4.97404E-001	9.99990E-001	0.00000E+000	1.00005E+000	1.95556E-003	12	..........a	-327.66
	168	167	4.97946E-001	9.99992E-001	0.00000E+000	1.00005E+000	1.95227E-003	12	..........a	-327.66
	172	171	4.98472E-001	9.99997E-001	0.00000E+000	1.00005E+000	1.94839E-003	12	..........a	-327.66
	176	175	4.98969E-001	1.00000E+000	0.00000E+000	1.00005E+000	1.94524E-003	12	..........a	-327.66
	180	179	4.99400E-001	1.00000E+000	0.00000E+000	1.00005E+000	1.94599E-003	12	..........a	-327.66
	184	183	4.99924E-001	1.00001E+000	0.00000E+000	1.00005E+000	1.94376E-003	12	..........a	-327.66
	188	187	5.00343E-001	1.00001E+000	0.00000E+000	1.00005E+000	1.94214E-003	12	..........a	-327.66
	192	191	5.00816E-001	1.00001E+000	0.00000E+000	1.00005E+000	1.93962E-003	12	..........a	-327.66
	196	195	5.01287E-001	1.00001E+000	0.00000E+000	1.00005E+000	1.93374E-003	12	..........a	-327.66
	200	199	5.01723E-001	1.00001E+000	0.00000E+000	1.00005E+000	1.93637E-003	12	..........a	-327.66
	204	203	5.02119E-001	1.00002E+000	0.00000E+000	1.00005E+000	1.93312E-003	12	..........a	-327.66
	208	207	5.02543E-001	1.00000E+000	0.00000E+000	1.00005E+000	1.93134E-003	12	..........a	-327.66
	212	211	5.02969E-001	1.00001E+000	0.00000E+000	1.00005E+000	1.92954E-003	12	..........a	-327.66
	216	215	5.03401E-001	1.00003E+000	0.00000E+000	1.00005E+000	1.92509E-003	12	..........a	-327.66
	220	219	5.03812E-001	1.00003E+000	0.00000E+000	1.00005E+000	1.92059E-003	12	..........a	-327.66
	224	223	5.04187E-001	1.00003E+000	0.00000E+000	1.00005E+000	1.92171E-003	12	..........a	-327.66
	228	227	5.04600E-001	1.00003E+000	0.00000E+000	1.00005E+000	1.92144E-003	12	..........a	-327.66
	232	231	5.04975E-001	1.00003E+000	0.00000E+000	1.00005E+000	1.91969E-003	12	..........a	-327.66
	236	235	5.05356E-001	1.00003E+000	0.00000E+000	1.00005E+000	1.92051E-003	12	..........a	-327.66
	240	239	5.05751E-001	1.00003E+000	0.00000E+000	1.00005E+000	1.91176E-003	12	..........a	-327.66
	244	243	5.06127E-001	1.00003E+000	0.00000E+000	1.00005E+000	1.91189E-003	12	..........a	-327.66
	248	247	5.06538E-001	1.00003E+000	0.00000E+000	1.00005E+000	1.90079E-003	12	..........a	-327.66
	252	251	5.06903E-001	1.00003E+000	0.00000E+000	1.00005E+000	1.89867E-003	12	..........a	-327.66
	256	255	5.07275E-001	1.00003E+000	0.00000E+000	1.00005E+000	1.90671E-003	12	..........a	-327.66
	260	259	5.07651E-001	1.00003E+000	0.00000E+000	1.00005E+000	1.89632E-003	12	..........a	-327.66
	264	263	5.08015E-001	1.00003E+000	0.00000E+000	1.00005E+000	1.90344E-003	12	..........a	-327.66
	268	267	5.08382E-001	1.00003E+000	0.00000E+000	1.00005E+000	1.89511E-003	12	..........a	-327.66
	272	271	5.08730E-001	1.00003E+000	0.00000E+000	1.00005E+000	1.89549E-003	12	..........a	-327.66
	276	275	5.09075E-001	1.00003E+000	0.00000E+000	1.00005E+000	1.89386E-003	12	..........a	-327.66
	280	279	5.09416E-001	1.00003E+000	0.00000E+000	1.00005E+000	1.89324E-003	12	..........a	-327.66
	284	283	5.09774E-001	1.00004E+000	0.00000E+000	1.00005E+000	1.88904E-003	12	..........a	-327.66
	288	287	5.10119E-001	1.00003E+000	0.00000E+000	1.00005E+000	1.88954E-003	12	..........a	-327.66
	292	291	5.10475E-001	1.00003E+000	0.00000E+000	1.00005E+000	1.88622E-003	12	..........a	-327.66
	296	295	5.10880E-001	1.00003E+000	0.00000E+000	1.00005E+000	1.87886E-003	12	..........a	-327.66
	300	299	5.11217E-001	1.00004E+000	0.00000E+000	1.00005E+000	1.88269E-003	12	..........a	-327.66
	304	303	5.11602E-001	1.00004E+000	0.00000E+000	1.00005E+000	1.88086E-003	12	..........a	-327.66
	308	307	5.11928E-001	1.00003E+000	0.00000E+000	1.00005E+000	1.88564E-003	12	..........a	-327.66
	312	311	5.12240E-001	1.00003E+000	0.00000E+000	1.00005E+000	1.88182E-003	12	..........a	-327.66
	316	315	5.12604E-001	1.00003E+000	0.00000E+000	1.00005E+000	1.88096E-003	12	..........a	-327.66
	320	319	5.12935E-001	1.00003E+000	0.00000E+000	1.00005E+000	1.87812E-003	12	..........a	-327.66
	324	323	5.13283E-001	1.00003E+000	0.00000E+000	1.00005E+000	1.88266E-003	12	..........a	-327.66
	328	327	5.13599E-001	1.00003E+000	0.00000E+000	1.00005E+000	1.88512E-003	12	..........a	-327.66
	332	331	5.13923E-001	1.00004E+000	0.00000E+000	1.00005E+000	1.88286E-003	12	..........a	-327.66
	336	335	5.14258E-001	1.00003E+000	0.00000E+000	1.00005E+000	1.87899E-003	12	..........a	-327.66
	340	339	5.14536E-001	1.00003E+000	0.00000E+000	1.00005E+000	1.88124E-003	12	..........a	-327.66
	344	343	5.14889E-001	1.00004E+000	0.00000E+000	1.00005E+000	1.88161E-003	12	..........a	-327.66
	348	347	5.15165E-001	1.00003E+000	0.00000E+000	1.00005E+000	1.87729E-003	12	..........a	-327.66
	352	351	5.15454E-001	1.00001E+000	0.00000E+000	1.00005E+000	1.88161E-003	12	..........a	-327.66
	356	355	5.15776E-001	1.00003E+000	0.00000E+000	1.00005E+000	1.87932E-003	12	..........a	-327.66
	360	359	5.16059E-001	1.00003E+000	0.00000E+000	1.00005E+000	1.87957E-003	12	..........a	-327.66
	364	363	5.16345E-001	1.00003E+000	0.00000E+000	1.00005E+000	1.87387E-003	12	..........a	-327.66
	368	367	5.16625E-001	1.00003E+000	0.00000E+000	1.00005E+000	1.87487E-003	12	..........a	-327.66
	372	371	5.16940E-001	1.00003E+000	0.00000E+000	1.00005E+000	1.87276E-003	12	..........a	-327.66
	376	375	5.17192E-001	1.00003E+000	0.00000E+000	1.00005E+000	1.88111E-003	12	..........a	-327.66
	380	379	5.17476E-001	1.00003E+000	0.00000E+000	1.00005E+000	1.87654E-003	12	..........a	-327.66
	384	383	5.17730E-001	1.00003E+000	0.00000E+000	1.00005E+000	1.87621E-003	12	..........a	-327.66
	388	387	5.17996E-001	1.00003E+000	0.00000E+000	1.00005E+000	1.87101E-003	12	..........a	-327.66
	392	391	5.18300E-001	1.00002E+000	0.00000E+000	1.00005E+000	1.87419E-003	12	..........a	-327.66
	396	395	5.18536E-001	1.00003E+000	0.00000E+000	1.00005E+000	1.87392E-003	12	..........a	-327.66
	400	399	5.18817E-001	1.00003E+000	0.00000E+000	1.00005E+000	1.87527E-003	12	..........a	-327.66
	404	403	5.19082E-001	1.00003E+000	0.00000E+000	1.00005E+000	1.87347E-003	12	..........a	-327.66
	408	407	5.19328E-001	1.00003E+000	0.00000E+000	1.00005E+000	1.87331E-003	12	..........a	-327.66
	412	411	5.19581E-001	1.00002E+000	0.00000E+000	1.00005E+000	1.87179E-003	12	..........a	-327.66
	416	415	5.19836E-001	1.00001E+000	0.00000E+000	1.00005E+000	1.87209E-003	12	..........a	-327.66
	420	419	5.20119E-001	1.00002E+000	0.00000E+000	1.00005E+000	1.86762E-003	12	..........a	-327.66
	424	423	5.20365E-001	1.00002E+000	0.00000E+000	1.00005E+000	1.86811E-003	12	..........a	-327.66
	428	427	5.20606E-001	1.00002E+000	0.00000E+000	1.00005E+000	1.86587E-003	12	..........a	-327.66
	432	431	5.20861E-001	1.00002E+000	0.00000E+000	1.00005E+000	1.87254E-003	12	..........a	-327.66
	436	435	5.21086E-001	1.00002E+000	0.00000E+000	1.00005E+000	1.87211E-003	12	..........a	-327.66
	440	439	5.21354E-001	1.00002E+000	0.00000E+000	1.00005E+000	1.87391E-003	12	..........a	-327.66
	444	443	5.21602E-001	1.00001E+000	0.00000E+000	1.00005E+000	1.87109E-003	12	..........a	-327.66
	448	447	5.21858E-001	1.00001E+000	0.00000E+000	1.00005E+000	1.86537E-003	12	..........a	-327.66
	452	451	5.22107E-001	1.00001E+000	0.00000E+000	1.00005E+000	1.86914E-003	12	..........a	-327.66
	456	455	5.22355E-001	1.00001E+000	0.00000E+000	1.00005E+000	1.86221E-003	12	..........a	-327.66
	460	459	5.22587E-001	1.00001E+000	0.00000E+000	1.00005E+000	1.86764E-003	12	..........a	-327.66
	464	463	5.22828E-001	1.00001E+000	0.00000E+000	1.00005E+000	1.86569E-003	12	..........a	-327.66
	468	467	5.23077E-001	1.00000E+000	0.00000E+000	1.00005E+000	1.86574E-003	12	..........a	-327.66
	472	471	5.23279E-001	1.00000E+000	0.00000E+000	1.00005E+000	1.86737E-003	12	..........a	-327.66
	476	475	5.23522E-001	9.99999E-001	0.00000E+000	1.00005E+000	1.86651E-003	12	..........a	-327.66
	480	479	5.23756E-001	1.00000E+000	0.00000E+000	1.00005E+000	1.87187E-003	12	..........a	-327.66
	484	483	5.23976E-001	9.99998E-001	0.00000E+000	1.00005E+000	1.86712E-003	12	..........a	-327.66
	488	487	5.24203E-001	9.99994E-001	0.00000E+000	1.00005E+000	1.86816E-003	12	..........a	-327.66
	492	491	5.24418E-001	9.99998E-001	0.00000E+000	1.00005E+000	1.87257E-003	12	..........a	-327.66
	496	495	5.24667E-001	9.99988E-001	0.00000E+000	1.00005E+000	1.87002E-003	12	..........a	-327.66
	500	499	5.24881E-001	9.99988E-001	0.00000E+000	1.00005E+000	1.86719E-003	12	..........a	-327.66
	504	503	5.25036E-001	9.99986E-001	0.00000E+000	1.00005E+000	1.86671E-003	12	..........a	-327.66
	508	507	5.25306E-001	9.99983E-001	0.00000E+000	1.00005E+000	1.86497E-003	12	..........a	-327.66
	512	511	5.25508E-001	9.99990E-001	0.00000E+000	1.00005E+000	1.86317E-003	12	..........a	-327.66
	516	515	5.25762E-001	9.99989E-001	0.00000E+000	1.00005E+000	1.86689E-003	12	..........a	-327.66
	520	519	5.25966E-001	9.99986E-001	0.00000E+000	1.00005E+000	1.86187E-003	12	..........a	-327.66
	524	523	5.26198E-001	9.99986E-001	0.00000E+000	1.00005E+000	1.85814E-003	12	..........a	-327.66
	528	527	5.26443E-001	9.99988E-001	0.00000E+000	1.00005E+000	1.86682E-003	12	..........a	-327.66
	532	531	5.26584E-001	9.99985E-001	0.00000E+000	1.00005E+000	1.86519E-003	12	..........a	-327.66
	536	535	5.26801E-001	9.99986E-001	0.00000E+000	1.00005E+000	1.86276E-003	12	..........a	-327.66
	540	539	5.26963E-001	9.99983E-001	0.00000E+000	1.00005E+000	1.85929E-003	12	..........a	-327.66
	544	543	5.27172E-001	9.99985E-001	0.00000E+000	1.00005E+000	1.85986E-003	12	..........a	-327.66
	548	547	5.27334E-001	9.99979E-001	0.00000E+000	1.00005E+000	1.86296E-003	12	..........a	-327.66
	552	551	5.27508E-001	9.99977E-001	0.00000E+000	1.00005E+000	1.86257E-003	12	..........a	-327.66
	556	555	5.27695E-001	9.99977E-001	0.00000E+000	1.00005E+000	1.85966E-003	12	..........a	-327.66
	560	559	5.27904E-001	9.99980E-001	0.00000E+000	1.00005E+000	1.86314E-003	12	..........a	-327.66
	564	563	5.28128E-001	9.99978E-001	0.00000E+000	1.00005E+000	1.86477E-003	12	..........a	-327.66
	568	567	5.28314E-001	9.99966E-001	0.00000E+000	1.00005E+000	1.86301E-003	12	..........a	-327.66
	572	571	5.28493E-001	9.99969E-001	0.00000E+000	1.00005E+000	1.88671E-003	12	..........a	-327.66
	576	575	5.28698E-001	9.99970E-001	0.00000E+000	1.00005E+000	1.88866E-003	12	..........a	-327.66
	580	579	5.28889E-001	9.99969E-001	0.00000E+000	1.00005E+000	1.88569E-003	12	..........a	-327.66
	584	583	5.29221E-001	9.99971E-001	0.00000E+000	1.00005E+000	1.88174E-003	12	..........a	-327.66
	588	587	5.29431E-001	9.99969E-001	0.00000E+000	1.00005E+000	1.88479E-003	12	..........a	-327.66
	592	591	5.29668E-001	9.99966E-001	0.00000E+000	1.00005E+000	1.89272E-003	12	..........a	-327.66
	596	595	5.29784E-001	9.99960E-001	0.00000E+000	1.00005E+000	1.88751E-003	12	..........a	-327.66
	600	599	5.29965E-001	9.99959E-001	0.00000E+000	1.00005E+000	1.89797E-003	12	..........a	-327.66
	604	603	5.30130E-001	9.99963E-001	0.00000E+000	1.00005E+000	1.90061E-003	12	..........a	-327.66
	608	607	5.30306E-001	9.99966E-001	0.00000E+000	1.00005E+000	1.90016E-003	12	..........a	-327.66
	612	611	5.30533E-001	9.99967E-001	0.00000E+000	1.00005E+000	1.85954E-003	12	..........a	-327.66
	616	615	5.30675E-001	9.99963E-001	0.00000E+000	1.00005E+000	1.85791E-003	12	..........a	-327.66
	620	619	5.30859E-001	9.99959E-001	0.00000E+000	1.00005E+000	1.86554E-003	12	..........a	-327.66
	624	623	5.31075E-001	9.99968E-001	0.00000E+000	1.00005E+000	1.85867E-003	12	..........a	-327.66
	628	627	5.31257E-001	9.99963E-001	0.00000E+000	1.00005E+000	1.86306E-003	12	..........a	-327.66
	632	631	5.31429E-001	9.99962E-001	0.00000E+000	1.00005E+000	1.85462E-003	12	..........a	-327.66
	636	635	5.31611E-001	9.99961E-001	0.00000E+000	1.00005E+000	1.86317E-003	12	..........a	-327.66
	640	639	5.31784E-001	9.99959E-001	0.00000E+000	1.00005E+000	1.86176E-003	12	..........a	-327.66
	644	643	5.31978E-001	9.99960E-001	0.00000E+000	1.00005E+000	1.85981E-003	12	..........a	-327.66
	648	647	5.33822E-001	9.99967E-001	0.00000E+000	1.00005E+000	1.86092E-003	12	..........a	-327.66
	652	651	5.34609E-001	9.99956E-001	0.00000E+000	1.00005E+000	1.86487E-003	12	..........a	-327.66
	656	655	5.34216E-001	9.99957E-001	0.00000E+000	1.00005E+000	1.86526E-003	12	..........a	-327.66
	660	659	5.34298E-001	9.99963E-001	0.00000E+000	1.00005E+000	1.86612E-003	12	..........a	-327.66
	664	663	5.34317E-001	9.99957E-001	0.00000E+000	1.00005E+000	1.86747E-003	12	..........a	-327.66
	668	667	5.34418E-001	9.99959E-001	0.00000E+000	1.00005E+000	1.86241E-003	12	..........a	-327.66
	672	671	5.34559E-001	9.99960E-001	0.00000E+000	1.00005E+000	1.86784E-003	12	..........a	-327.66
	676	675	5.34695E-001	9.99956E-001	0.00000E+000	1.00005E+000	1.86187E-003	12	..........a	-327.66
	680	679	5.34963E-001	9.99959E-001	0.00000E+000	1.00005E+000	1.86649E-003	12	..........a	-327.66
	684	683	5.35115E-001	9.99960E-001	0.00000E+000	1.00005E+000	1.87361E-003	12	..........a	-327.66
	688	687	5.35296E-001	9.99953E-001	0.00000E+000	1.00005E+000	1.87024E-003	12	..........a	-327.66
	692	691	5.35423E-001	9.99951E-001	0.00000E+000	1.00005E+000	1.93259E-003	12	..........a	-327.66
	696	695	5.35555E-001	9.99956E-001	0.00000E+000	1.00005E+000	1.93826E-003	12	..........a	-327.66
	700	699	5.35756E-001	9.99952E-001	0.00000E+000	1.00005E+000	1.93881E-003	12	..........a	-327.66
	704	703	5.35929E-001	9.99958E-001	0.00000E+000	1.00005E+000	1.93441E-003	12	..........a	-327.66
	708	707	5.36121E-001	9.99949E-001	0.00000E+000	1.00005E+000	1.93911E-003	12	..........a	-327.66
	712	711	5.36260E-001	9.99953E-001	0.00000E+000	1.00005E+000	1.87742E-003	12	..........a	-327.66
	716	715	5.36426E-001	9.99954E-001	0.00000E+000	1.00005E+000	1.88709E-003	12	..........a	-327.66
	720	719	5.36569E-001	9.99948E-001	0.00000E+000	1.00005E+000	1.93439E-003	12	..........a	-327.66
	724	723	5.36731E-001	9.99953E-001	0.00000E+000	1.00005E+000	1.93256E-003	12	..........a	-327.66
	728	727	5.36916E-001	9.99954E-001	0.00000E+000	1.00005E+000	1.94111E-003	12	..........a	-327.66
	732	731	5.37069E-001	9.99952E-001	0.00000E+000	1.00005E+000	1.94121E-003	12	..........a	-327.66
	736	735	5.37257E-001	9.99956E-001	0.00000E+000	1.00005E+000	1.93457E-003	12	..........a	-327.66
	740	739	5.37464E-001	9.99955E-001	0.00000E+000	1.00005E+000	1.93231E-003	12	..........a	-327.66
	744	743	5.37635E-001	9.99959E-001	0.00000E+000	1.00005E+000	1.90416E-003	12	..........a	-327.66
	748	747	5.37789E-001	9.99949E-001	0.00000E+000	1.00005E+000	1.90607E-003	12	..........a	-327.66
	752	751	5.37896E-001	9.99951E-001	0.00000E+000	1.00005E+000	1.94086E-003	12	..........a	-327.66
	756	755	5.38108E-001	9.99953E-001	0.00000E+000	1.00005E+000	1.90677E-003	12	..........a	-327.66
	760	759	5.38257E-001	9.99936E-001	0.00000E+000	1.00005E+000	1.93771E-003	12	..........a	-327.66
	764	763	5.38482E-001	9.99953E-001	0.00000E+000	1.00005E+000	1.93424E-003	12	..........a	-327.66
	768	767	5.38684E-001	9.99953E-001	0.00000E+000	1.00005E+000	1.94032E-003	12	..........a	-327.66
	772	771	5.38871E-001	9.99946E-001	0.00000E+000	1.00005E+000	1.93699E-003	12	..........a	-327.66
	776	775	5.39131E-001	9.99955E-001	0.00000E+000	1.00005E+000	1.91404E-003	12	..........a	-327.66
	780	779	5.39299E-001	9.99959E-001	0.00000E+000	1.00005E+000	1.94266E-003	12	..........a	-327.66
	784	783	5.39473E-001	9.99966E-001	0.00000E+000	1.00005E+000	1.91971E-003	12	..........a	-327.66
	788	787	5.39647E-001	9.99968E-001	0.00000E+000	1.00005E+000	1.92366E-003	12	..........a	-327.66
	792	791	5.39835E-001	9.99957E-001	0.00000E+000	1.00005E+000	1.91257E-003	12	..........a	-327.66
	796	795	5.40053E-001	9.99961E-001	0.00000E+000	1.00005E+000	1.91999E-003	12	..........a	-327.66
	800	799	5.40218E-001	9.99961E-001	0.00000E+000	1.00005E+000	1.92241E-003	12	..........a	-327.66
	804	803	5.40426E-001	9.99962E-001	0.00000E+000	1.00005E+000	1.93402E-003	12	..........a	-327.66
	808	807	5.40606E-001	9.99962E-001	0.00000E+000	1.00005E+000	1.93302E-003	12	..........a	-327.66
	812	811	5.40831E-001	9.99961E-001	0.00000E+000	1.00005E+000	1.93426E-003	12	..........a	-327.66
	816	815	5.40990E-001	9.99962E-001	0.00000E+000	1.00005E+000	1.92242E-003	12	..........a	-327.66
	820	819	5.41124E-001	9.99957E-001	0.00000E+000	1.00005E+000	1.92157E-003	12	..........a	-327.66
	824	823	5.41309E-001	9.99963E-001	0.00000E+000	1.00005E+000	1.92512E-003	12	..........a	-327.66
	828	827	5.41454E-001	9.99956E-001	0.00000E+000	1.00005E+000	1.92869E-003	12	..........a	-327.66
	832	831	5.41649E-001	9.99960E-001	0.00000E+000	1.00005E+000	1.92727E-003	12	..........a	-327.66
	836	835	5.41826E-001	9.99956E-001	0.00000E+000	1.00005E+000	1.92859E-003	12	..........a	-327.66
	840	839	5.41998E-001	9.99967E-001	0.00000E+000	1.00005E+000	1.93126E-003	12	..........a	-327.66
	844	843	5.42190E-001	9.99966E-001	0.00000E+000	1.00005E+000	1.92544E-003	12	..........a	-327.66
	848	847	5.42374E-001	9.99964E-001	0.00000E+000	1.00005E+000	1.93047E-003	12	..........a	-327.66
	852	851	5.42520E-001	9.99970E-001	0.00000E+000	1.00005E+000	1.92324E-003	12	..........a	-327.66
	856	855	5.42666E-001	9.99963E-001	0.00000E+000	1.00005E+000	1.92582E-003	12	..........a	-327.66
	860	859	5.42853E-001	9.99963E-001	0.00000E+000	1.00005E+000	1.92401E-003	12	..........a	-327.66
	864	863	5.43018E-001	9.99957E-001	0.00000E+000	1.00005E+000	1.91827E-003	12	..........a	-327.66
	868	867	5.43180E-001	9.99967E-001	0.00000E+000	1.00005E+000	1.92667E-003	12	..........a	-327.66
	872	871	5.43393E-001	9.99966E-001	0.00000E+000	1.00005E+000	1.92384E-003	12	..........a	-327.66
	876	875	5.43535E-001	9.99965E-001	0.00000E+000	1.00005E+000	1.92131E-003	12	..........a	-327.66
	880	879	5.43723E-001	9.99965E-001	0.00000E+000	1.00005E+000	1.92371E-003	12	..........a	-327.66
	884	883	5.43911E-001	9.99971E-001	0.00000E+000	1.00005E+000	1.92024E-003	12	..........a	-327.66
	888	887	5.44096E-001	9.99971E-001	0.00000E+000	1.00005E+000	1.92549E-003	12	..........a	-327.66
	892	891	5.44264E-001	9.99968E-001	0.00000E+000	1.00005E+000	1.93217E-003	12	..........a	-327.66
	896	895	5.44415E-001	9.99962E-001	0.00000E+000	1.00005E+000	1.92904E-003	12	..........a	-327.66
	900	899	5.44598E-001	9.99967E-001	0.00000E+000	1.00005E+000	1.92144E-003	12	..........a	-327.66
	904	903	5.44788E-001	9.99962E-001	0.00000E+000	1.00005E+000	1.92341E-003	12	..........a	-327.66
	908	907	5.44977E-001	9.99965E-001	0.00000E+000	1.00005E+000	1.92507E-003	12	..........a	-327.66
	912	911	5.45214E-001	9.99969E-001	0.00000E+000	1.00005E+000	1.92461E-003	12	..........a	-327.66
	916	915	5.48527E-001	9.99968E-001	0.00000E+000	1.00005E+000	1.92104E-003	12	..........a	-327.66
	920	919	5.48334E-001	9.99971E-001	0.00000E+000	1.00005E+000	1.91834E-003	12	..........a	-327.66
	924	923	5.48292E-001	9.99969E-001	0.00000E+000	1.00005E+000	1.90906E-003	12	..........a	-327.66
	928	927	5.48399E-001	9.99970E-001	0.00000E+000	1.00005E+000	1.92294E-003	12	..........a	-327.66
	932	931	5.48602E-001	9.99972E-001	0.00000E+000	1.00005E+000	1.91177E-003	12	..........a	-327.66
	936	935	5.48773E-001	9.99972E-001	0.00000E+000	1.00005E+000	1.90749E-003	12	..........a	-327.66
	940	939	5.48915E-001	9.99963E-001	0.00000E+000	1.00005E+000	1.91594E-003	12	..........a	-327.66
	944	943	5.49007E-001	9.99978E-001	0.00000E+000	1.00005E+000	1.90781E-003	12	..........a	-327.66
	948	947	5.49167E-001	9.99973E-001	0.00000E+000	1.00005E+000	1.91541E-003	12	..........a	-327.66
	952	951	5.49280E-001	9.99977E-001	0.00000E+000	1.00005E+000	1.91829E-003	12	..........a	-327.66
	956	955	5.49429E-001	9.99976E-001	0.00000E+000	1.00005E+000	1.91219E-003	12	..........a	-327.66
	960	959	5.49627E-001	9.99967E-001	0.00000E+000	1.00005E+000	1.91144E-003	12	..........a	-327.66
	964	963	5.49772E-001	9.99965E-001	0.00000E+000	1.00005E+000	1.91274E-003	12	..........a	-327.66
	968	967	5.49970E-001	9.99966E-001	0.00000E+000	1.00005E+000	1.91264E-003	12	..........a	-327.66
	972	971	5.50102E-001	9.99972E-001	0.00000E+000	1.00005E+000	1.91231E-003	12	..........a	-327.66
	976	975	5.50305E-001	9.99969E-001	0.00000E+000	1.00005E+000	1.91381E-003	12	..........a	-327.66
	980	979	5.50454E-001	9.99971E-001	0.00000E+000	1.00005E+000	1.91337E-003	12	..........a	-327.66
	984	983	5.50607E-001	9.99974E-001	0.00000E+000	1.00005E+000	1.90997E-003	12	..........a	-327.66
	988	987	5.50741E-001	9.99976E-001	0.00000E+000	1.00005E+000	1.91394E-003	12	..........a	-327.66
	992	991	5.50861E-001	9.99970E-001	0.00000E+000	1.00005E+000	1.91741E-003	12	..........a	-327.66
	996	995	5.51004E-001	9.99974E-001	0.00000E+000	1.00005E+000	1.90697E-003	12	..........a	-327.66
	1000	999	5.51157E-001	9.99968E-001	0.00000E+000	1.00005E+000	1.92101E-003	12	..........a	-327.66
	1004	1003	5.51336E-001	9.99973E-001	0.00000E+000	1.00005E+000	1.90901E-003	12	..........a	-327.66
	1008	1007	5.51465E-001	9.99972E-001	0.00000E+000	1.00005E+000	1.91244E-003	12	..........a	-327.66
	1012	1011	5.51666E-001	9.99972E-001	0.00000E+000	1.00005E+000	1.91557E-003	12	..........a	-327.66
	1016	1015	5.51945E-001	9.99975E-001	0.00000E+000	1.00005E+000	1.91094E-003	12	..........a	-327.66
	1020	1019	5.52068E-001	9.99975E-001	0.00000E+000	1.00005E+000	1.90801E-003	12	..........a	-327.66
	1024	1023	5.52199E-001	9.99976E-001	0.00000E+000	1.00005E+000	1.91064E-003	12	..........a	-327.66
	1028	1027	5.52331E-001	9.99971E-001	0.00000E+000	1.00005E+000	1.91924E-003	12	..........a	-327.66
	1032	1031	5.52487E-001	9.99968E-001	0.00000E+000	1.00005E+000	1.91037E-003	12	..........a	-327.66
	1036	1035	5.52688E-001	9.99971E-001	0.00000E+000	1.00005E+000	1.91507E-003	12	..........a	-327.66
	1040	1039	5.52871E-001	9.99971E-001	0.00000E+000	1.00005E+000	1.91644E-003	12	..........a	-327.66
	1044	1043	5.53089E-001	9.99971E-001	0.00000E+000	1.00005E+000	1.90617E-003	12	..........a	-327.66
	1048	1047	5.53249E-001	9.99971E-001	0.00000E+000	1.00005E+000	1.92131E-003	12	..........a	-327.66
	1052	1051	5.53520E-001	9.99968E-001	0.00000E+000	1.00005E+000	1.91694E-003	12	..........a	-327.66
	1056	1055	5.53667E-001	9.99973E-001	0.00000E+000	1.00005E+000	1.90261E-003	12	..........a	-327.66
	1060	1059	5.53813E-001	9.99967E-001	0.00000E+000	1.00005E+000	1.91197E-003	12	..........a	-327.66
	1064	1063	5.54013E-001	9.99967E-001	0.00000E+000	1.00005E+000	1.91117E-003	12	..........a	-327.66
	1068	1067	5.54115E-001	9.99969E-001	0.00000E+000	1.00005E+000	1.91364E-003	12	..........a	-327.66
	1072	1071	5.54324E-001	9.99965E-001	0.00000E+000	1.00005E+000	1.91124E-003	12	..........a	-327.66
	1076	1075	5.54472E-001	9.99969E-001	0.00000E+000	1.00005E+000	1.90267E-003	12	..........a	-327.66
	1080	1079	5.54716E-001	9.99964E-001	0.00000E+000	1.00005E+000	1.90732E-003	12	..........a	-327.66
	1084	1083	5.54856E-001	9.99972E-001	0.00000E+000	1.00005E+000	1.90904E-003	12	..........a	-327.66
	1088	1087	5.55073E-001	9.99965E-001	0.00000E+000	1.00005E+000	1.90457E-003	12	..........a	-327.66
	1092	1091	5.55233E-001	9.99965E-001	0.00000E+000	1.00005E+000	1.90701E-003	12	..........a	-327.66
	1096	1095	5.55377E-001	9.99964E-001	0.00000E+000	1.00005E+000	1.91264E-003	12	..........a	-327.66
	1100	1099	5.55581E-001	9.99966E-001	0.00000E+000	1.00005E+000	1.91634E-003	12	..........a	-327.66
	1104	1103	5.55695E-001	9.99960E-001	0.00000E+000	1.00005E+000	1.91541E-003	12	..........a	-327.66
	1108	1107	5.55907E-001	9.99958E-001	0.00000E+000	1.00005E+000	1.91591E-003	12	..........a	-327.66
	1112	1111	5.56114E-001	9.99961E-001	0.00000E+000	1.00005E+000	1.90957E-003	12	..........a	-327.66
	1116	1115	5.56318E-001	9.99962E-001	0.00000E+000	1.00005E+000	1.92829E-003	12	..........a	-327.66
	1120	1119	5.56535E-001	9.99955E-001	0.00000E+000	1.00005E+000	1.91997E-003	12	..........a	-327.66
	1124	1123	5.56761E-001	9.99956E-001	0.00000E+000	1.00005E+000	1.91417E-003	12	..........a	-327.66
	1128	1127	5.56897E-001	9.99958E-001	0.00000E+000	1.00005E+000	1.91489E-003	12	..........a	-327.66
	1132	1131	5.57107E-001	9.99953E-001	0.00000E+000	1.00005E+000	1.90639E-003	12	..........a	-327.66
	1136	1135	5.57238E-001	9.99953E-001	0.00000E+000	1.00005E+000	1.90402E-003	12	..........a	-327.66
	1140	1139	5.57479E-001	9.99956E-001	0.00000E+000	1.00005E+000	1.90561E-003	12	..........a	-327.66
	1144	1143	5.57627E-001	9.99953E-001	0.00000E+000	1.00005E+000	1.90741E-003	12	..........a	-327.66
	1148	1147	5.57862E-001	9.99956E-001	0.00000E+000	1.00005E+000	1.90466E-003	12	..........a	-327.66
	1152	1151	5.58028E-001	9.99950E-001	0.00000E+000	1.00005E+000	1.91216E-003	12	..........a	-327.66
	1156	1155	5.58288E-001	9.99951E-001	0.00000E+000	1.00005E+000	1.91704E-003	12	..........a	-327.66
	1160	1159	5.58460E-001	9.99947E-001	0.00000E+000	1.00005E+000	1.91272E-003	12	..........a	-327.66
	1164	1163	5.58644E-001	9.99951E-001	0.00000E+000	1.00005E+000	1.90949E-003	12	..........a	-327.66
	1168	1167	5.58834E-001	9.99944E-001	0.00000E+000	1.00005E+000	1.90964E-003	12	..........a	-327.66
	1172	1171	5.59049E-001	9.99940E-001	0.00000E+000	1.00005E+000	1.90634E-003	12	..........a	-327.66
	1176	1175	5.59262E-001	9.99944E-001	0.00000E+000	1.00005E+000	1.90664E-003	12	..........a	-327.66
	1180	1179	5.59497E-001	9.99951E-001	0.00000E+000	1.00005E+000	1.91342E-003	12	..........a	-327.66
	1184	1183	5.59685E-001	9.99949E-001	0.00000E+000	1.00005E+000	1.92012E-003	12	..........a	-327.66
	1188	1187	5.59950E-001	9.99946E-001	0.00000E+000	1.00005E+000	1.91216E-003	12	..........a	-327.66
	1192	1191	5.60088E-001	9.99953E-001	0.00000E+000	1.00005E+000	1.91261E-003	12	..........a	-327.66
	1196	1195	5.60244E-001	9.99946E-001	0.00000E+000	1.00005E+000	1.90991E-003	12	..........a	-327.66
	1200	1199	5.60425E-001	9.99947E-001	0.00000E+000	1.00005E+000	1.91519E-003	12	..........a	-327.66
	1204	1203	5.60603E-001	9.99943E-001	0.00000E+000	1.00005E+000	1.90711E-003	12	..........a	-327.66
	1208	1207	5.60823E-001	9.99951E-001	0.00000E+000	1.00005E+000	1.91217E-003	12	..........a	-327.66
	1212	1211	5.61018E-001	9.99943E-001	0.00000E+000	1.00005E+000	1.91747E-003	12	..........a	-327.66
	1216	1215	5.61314E-001	9.99946E-001	0.00000E+000	1.00005E+000	1.92226E-003	12	..........a	-327.66
	1220	1219	5.61568E-001	9.99941E-001	0.00000E+000	1.00005E+000	1.92304E-003	12	..........a	-327.66
	1224	1223	5.61767E-001	9.99940E-001	0.00000E+000	1.00005E+000	1.91982E-003	12	..........a	-327.66
	1228	1227	5.61988E-001	9.99942E-001	0.00000E+000	1.00005E+000	1.92186E-003	12	..........a	-327.66
	1232	1231	5.62169E-001	9.99940E-001	0.00000E+000	1.00005E+000	1.92109E-003	12	..........a	-327.66
	1236	1235	5.62410E-001	9.99940E-001	0.00000E+000	1.00005E+000	1.91921E-003	12	..........a	-327.66
	1240	1239	5.62609E-001	9.99938E-001	0.00000E+000	1.00005E+000	1.92054E-003	12	..........a	-327.66
	1244	1243	5.62826E-001	9.99936E-001	0.00000E+000	1.00005E+000	1.92164E-003	12	..........a	-327.66
	1248	1247	5.63054E-001	9.99933E-001	0.00000E+000	1.00005E+000	1.92269E-003	12	..........a	-327.66
	1252	1251	5.63186E-001	9.99936E-001	0.00000E+000	1.00005E+000	1.92517E-003	12	..........a	-327.66
	1256	1255	5.63367E-001	9.99934E-001	0.00000E+000	1.00005E+000	1.92776E-003	12	..........a	-327.66
	1260	1259	5.63559E-001	9.99937E-001	0.00000E+000	1.00005E+000	1.92144E-003	12	..........a	-327.66
	1264	1263	5.63815E-001	9.99938E-001	0.00000E+000	1.00005E+000	1.92679E-003	12	..........a	-327.66
	1268	1267	5.64035E-001	9.99930E-001	0.00000E+000	1.00005E+000	1.92647E-003	12	..........a	-327.66
	1272	1271	5.64284E-001	9.99937E-001	0.00000E+000	1.00005E+000	1.91766E-003	12	..........a	-327.66
	1276	1275	5.64524E-001	9.99931E-001	0.00000E+000	1.00005E+000	1.92222E-003	12	..........a	-327.66
	1280	1279	5.64761E-001	9.99930E-001	0.00000E+000	1.00005E+000	1.92112E-003	12	..........a	-327.66
	1284	1283	5.64960E-001	9.99929E-001	0.00000E+000	1.00005E+000	1.91909E-003	12	..........a	-327.66
	1288	1287	5.65127E-001	9.99928E-001	0.00000E+000	1.00005E+000	1.91911E-003	12	..........a	-327.66
	1292	1291	5.65324E-001	9.99929E-001	0.00000E+000	1.00005E+000	1.91772E-003	12	..........a	-327.66
	1296	1295	5.65555E-001	9.99926E-001	0.00000E+000	1.00005E+000	1.92187E-003	12	..........a	-327.66
	1300	1299	5.65765E-001	9.99925E-001	0.00000E+000	1.00005E+000	1.91509E-003	12	..........a	-327.66
	1304	1303	5.65992E-001	9.99922E-001	0.00000E+000	1.00005E+000	1.91926E-003	12	..........a	-327.66
	1308	1307	5.66219E-001	9.99929E-001	0.00000E+000	1.00005E+000	1.92581E-003	12	..........a	-327.66
	1312	1311	5.66413E-001	9.99922E-001	0.00000E+000	1.00005E+000	1.92082E-003	12	..........a	-327.66
	1316	1315	5.66587E-001	9.99924E-001	0.00000E+000	1.00005E+000	1.92299E-003	12	..........a	-327.66
	1320	1319	5.66788E-001	9.99925E-001	0.00000E+000	1.00005E+000	1.91629E-003	12	..........a	-327.66
	1324	1323	5.67014E-001	9.99924E-001	0.00000E+000	1.00005E+000	1.92182E-003	12	..........a	-327.66
	1328	1327	5.67196E-001	9.99923E-001	0.00000E+000	1.00005E+000	1.91107E-003	12	..........a	-327.66
	1332	1331	5.67402E-001	9.99920E-001	0.00000E+000	1.00005E+000	1.91939E-003	12	..........a	-327.66
	1336	1335	5.67578E-001	9.99926E-001	0.00000E+000	1.00005E+000	1.92077E-003	12	..........a	-327.66
	1340	1339	5.67768E-001	9.99921E-001	0.00000E+000	1.00005E+000	1.91692E-003	12	..........a	-327.66
	1344	1343	5.67957E-001	9.99922E-001	0.00000E+000	1.00005E+000	1.91696E-003	12	..........a	-327.66
	1348	1347	5.68118E-001	9.99923E-001	0.00000E+000	1.00005E+000	1.91864E-003	12	..........a	-327.66
	1352	1351	5.68299E-001	9.99928E-001	0.00000E+000	1.00005E+000	1.92117E-003	12	..........a	-327.66
	1356	1355	5.68442E-001	9.99920E-001	0.00000E+000	1.00005E+000	1.92351E-003	12	..........a	-327.66
	1360	1359	5.68654E-001	9.99923E-001	0.00000E+000	1.00005E+000	1.92186E-003	12	..........a	-327.66
	1364	1363	5.68802E-001	9.99924E-001	0.00000E+000	1.00005E+000	1.92806E-003	12	..........a	-327.66
	1368	1367	5.69011E-001	9.99921E-001	0.00000E+000	1.00005E+000	1.91911E-003	12	..........a	-327.66
	1372	1371	5.69178E-001	9.99925E-001	0.00000E+000	1.00005E+000	1.92722E-003	12	..........a	-327.66
	1376	1375	5.69380E-001	9.99918E-001	0.00000E+000	1.00005E+000	1.92246E-003	12	..........a	-327.66
	1380	1379	5.69572E-001	9.99911E-001	0.00000E+000	1.00005E+000	1.92932E-003	12	..........a	-327.66
	1384	1383	5.69695E-001	9.99920E-001	0.00000E+000	1.00005E+000	1.92514E-003	12	..........a	-327.66
	1388	1387	5.69886E-001	9.99919E-001	0.00000E+000	1.00005E+000	1.93221E-003	12	..........a	-327.66
	1392	1391	5.70004E-001	9.99915E-001	0.00000E+000	1.00005E+000	1.92204E-003	12	..........a	-327.66
	1396	1395	5.70215E-001	9.99916E-001	0.00000E+000	1.00005E+000	1.92949E-003	12	..........a	-327.66
	1400	1399	5.70360E-001	9.99921E-001	0.00000E+000	1.00005E+000	1.92774E-003	12	..........a	-327.66
	1404	1403	5.70496E-001	9.99912E-001	0.00000E+000	1.00005E+000	1.92821E-003	12	..........a	-327.66
	1408	1407	5.70710E-001	9.99915E-001	0.00000E+000	1.00005E+000	1.93214E-003	12	..........a	-327.66
	1412	1411	5.70836E-001	9.99916E-001	0.00000E+000	1.00005E+000	1.92237E-003	12	..........a	-327.66
	1416	1415	5.71032E-001	9.99913E-001	0.00000E+000	1.00005E+000	1.92319E-003	12	..........a	-327.66
	1420	1419	5.71164E-001	9.99911E-001	0.00000E+000	1.00005E+000	1.92434E-003	12	..........a	-327.66
	1424	1423	5.71312E-001	9.99911E-001	0.00000E+000	1.00005E+000	1.91612E-003	12	..........a	-327.66
	1428	1427	5.71505E-001	9.99916E-001	0.00000E+000	1.00005E+000	1.92424E-003	12	..........a	-327.66
	1432	1431	5.71627E-001	9.99910E-001	0.00000E+000	1.00005E+000	1.92086E-003	12	..........a	-327.66
	1436	1435	5.71779E-001	9.99918E-001	0.00000E+000	1.00005E+000	1.92532E-003	12	..........a	-327.66
	1440	1439	5.71947E-001	9.99917E-001	0.00000E+000	1.00005E+000	1.92994E-003	12	..........a	-327.66
	1444	1443	5.72073E-001	9.99919E-001	0.00000E+000	1.00005E+000	1.92046E-003	12	..........a	-327.66
	1448	1447	5.72226E-001	9.99922E-001	0.00000E+000	1.00005E+000	1.92287E-003	12	..........a	-327.66
	1452	1451	5.72332E-001	9.99915E-001	0.00000E+000	1.00005E+000	1.91747E-003	12	..........a	-327.66
	1456	1455	5.72479E-001	9.99916E-001	0.00000E+000	1.00005E+000	1.91422E-003	12	..........a	-327.66
	1460	1459	5.72584E-001	9.99916E-001	0.00000E+000	1.00005E+000	1.91647E-003	12	..........a	-327.66
	1464	1463	5.72707E-001	9.99910E-001	0.00000E+000	1.00005E+000	1.91712E-003	12	..........a	-327.66
	1468	1467	5.72800E-001	9.99910E-001	0.00000E+000	1.00005E+000	1.91786E-003	12	..........a	-327.66
	1472	1471	5.72930E-001	9.99907E-001	0.00000E+000	1.00005E+000	1.91617E-003	12	..........a	-327.66
	1476	1475	5.73162E-001	9.99910E-001	0.00000E+000	1.00005E+000	1.91451E-003	12	..........a	-327.66
	1480	1479	5.73363E-001	9.99905E-001	0.00000E+000	1.00005E+000	1.91747E-003	12	..........a	-327.66
	1484	1483	5.73637E-001	9.99903E-001	0.00000E+000	1.00005E+000	1.92482E-003	12	..........a	-327.66
	1488	1487	5.73870E-001	9.99906E-001	0.00000E+000	1.00005E+000	1.91594E-003	12	..........a	-327.66
	1492	1491	5.74058E-001	9.99906E-001	0.00000E+000	1.00005E+000	1.92332E-003	12	..........a	-327.66
	1496	1495	5.74259E-001	9.99905E-001	0.00000E+000	1.00005E+000	1.91457E-003	12	..........a	-327.66
	1500	1499	5.74409E-001	9.99911E-001	0.00000E+000	1.00005E+000	1.91037E-003	12	..........a	-327.66
	1504	1503	5.74623E-001	9.99908E-001	0.00000E+000	1.00005E+000	1.92747E-003	12	..........a	-327.66
	1508	1507	5.74747E-001	9.99909E-001	0.00000E+000	1.00005E+000	1.91812E-003	12	..........a	-327.66
	1512	1511	5.74891E-001	9.99910E-001	0.00000E+000	1.00005E+000	1.91969E-003	12	..........a	-327.66
	1516	1515	5.75077E-001	9.99912E-001	0.00000E+000	1.00005E+000	1.91112E-003	12	..........a	-327.66
	1520	1519	5.75181E-001	9.99909E-001	0.00000E+000	1.00005E+000	1.90929E-003	12	..........a	-327.66
	1524	1523	5.75310E-001	9.99907E-001	0.00000E+000	1.00005E+000	1.92491E-003	12	..........a	-327.66
	1528	1527	5.75392E-001	9.99910E-001	0.00000E+000	1.00005E+000	1.92651E-003	12	..........a	-327.66
	1532	1531	5.75523E-001	9.99906E-001	0.00000E+000	1.00005E+000	1.92646E-003	12	..........a	-327.66
	1536	1535	5.75606E-001	9.99908E-001	0.00000E+000	1.00005E+000	1.91916E-003	12	..........a	-327.66
	1540	1539	5.75705E-001	9.99907E-001	0.00000E+000	1.00005E+000	1.91732E-003	12	..........a	-327.66
	1544	1543	5.75819E-001	9.99907E-001	0.00000E+000	1.00005E+000	1.92326E-003	12	..........a	-327.66
	1548	1547	5.75870E-001	9.99906E-001	0.00000E+000	1.00005E+000	1.91136E-003	12	..........a	-327.66
	1552	1551	5.75972E-001	9.99906E-001	0.00000E+000	1.00005E+000	1.91211E-003	12	..........a	-327.66
	1556	1555	5.76024E-001	9.99905E-001	0.00000E+000	1.00005E+000	1.90541E-003	12	..........a	-327.66
	1560	1559	5.76116E-001	9.99908E-001	0.00000E+000	1.00005E+000	1.90176E-003	12	..........a	-327.66
	1564	1563	5.76285E-001	9.99908E-001	0.00000E+000	1.00005E+000	1.90091E-003	12	..........a	-327.66
	1568	1567	5.76409E-001	9.99909E-001	0.00000E+000	1.00005E+000	1.91964E-003	12	..........a	-327.66
	1572	1571	5.76517E-001	9.99909E-001	0.00000E+000	1.00005E+000	1.90746E-003	12	..........a	-327.66
	1576	1575	5.76631E-001	9.99904E-001	0.00000E+000	1.00005E+000	1.90681E-003	12	..........a	-327.66
	1580	1579	5.76767E-001	9.99906E-001	0.00000E+000	1.00005E+000	1.91076E-003	12	..........a	-327.66
	1584	1583	5.76859E-001	9.99900E-001	0.00000E+000	1.00005E+000	1.89884E-003	12	..........a	-327.66
	1588	1587	5.76989E-001	9.99900E-001	0.00000E+000	1.00005E+000	1.90642E-003	12	..........a	-327.66
	1592	1591	5.77137E-001	9.99899E-001	0.00000E+000	1.00005E+000	1.90677E-003	12	..........a	-327.66
	1596	1595	5.77183E-001	9.99904E-001	0.00000E+000	1.00005E+000	1.90224E-003	12	..........a	-327.66
	1600	1599	5.77305E-001	9.99902E-001	0.00000E+000	1.00005E+000	1.89814E-003	12	..........a	-327.66
	1604	1603	5.77366E-001	9.99905E-001	0.00000E+000	1.00005E+000	1.89324E-003	12	..........a	-327.66
	1608	1607	5.77512E-001	9.99903E-001	0.00000E+000	1.00005E+000	1.90952E-003	12	..........a	-327.66
	1612	1611	5.77580E-001	9.99905E-001	0.00000E+000	1.00005E+000	1.89442E-003	12	..........a	-327.66
	1616	1615	5.77630E-001	9.99907E-001	0.00000E+000	1.00005E+000	1.90947E-003	12	..........a	-327.66
	1620	1619	5.77725E-001	9.99904E-001	0.00000E+000	1.00005E+000	1.89774E-003	12	..........a	-327.66
	1624	1623	5.77857E-001	9.99906E-001	0.00000E+000	1.00005E+000	1.89841E-003	12	..........a	-327.66
	1628	1627	5.77945E-001	9.99908E-001	0.00000E+000	1.00005E+000	1.89564E-003	12	..........a	-327.66
	1632	1631	5.77975E-001	9.99899E-001	0.00000E+000	1.00005E+000	1.89961E-003	12	..........a	-327.66
	1636	1635	5.78116E-001	9.99906E-001	0.00000E+000	1.00005E+000	1.89122E-003	12	..........a	-327.66
	1640	1639	5.78205E-001	9.99906E-001	0.00000E+000	1.00005E+000	1.90102E-003	12	..........a	-327.66
	1644	1643	5.78299E-001	9.99903E-001	0.00000E+000	1.00005E+000	1.89681E-003	12	..........a	-327.66
	1648	1647	5.78412E-001	9.99903E-001	0.00000E+000	1.00005E+000	1.89656E-003	12	..........a	-327.66
	1652	1651	5.78481E-001	9.99909E-001	0.00000E+000	1.00005E+000	1.88749E-003	12	..........a	-327.66
	1656	1655	5.78631E-001	9.99906E-001	0.00000E+000	1.00005E+000	1.89301E-003	12	..........a	-327.66
	1660	1659	5.78747E-001	9.99909E-001	0.00000E+000	1.00005E+000	1.89064E-003	12	..........a	-327.66
	1664	1663	5.78783E-001	9.99907E-001	0.00000E+000	1.00005E+000	1.88969E-003	12	..........a	-327.66
	1668	1667	5.78808E-001	9.99903E-001	0.00000E+000	1.00005E+000	1.89096E-003	12	..........a	-327.66
	1672	1671	5.78911E-001	9.99905E-001	0.00000E+000	1.00005E+000	1.88979E-003	12	..........a	-327.66
	1676	1675	5.79066E-001	9.99904E-001	0.00000E+000	1.00005E+000	1.89131E-003	12	..........a	-327.66
	1680	1679	5.79082E-001	9.99904E-001	0.00000E+000	1.00005E+000	1.89367E-003	12	..........a	-327.66
	1684	1683	5.79180E-001	9.99899E-001	0.00000E+000	1.00005E+000	1.88344E-003	12	..........a	-327.66
	1688	1687	5.79173E-001	9.99899E-001	0.00000E+000	1.00005E+000	1.88662E-003	12	..........a	-327.66
	1692	1691	5.79265E-001	9.99907E-001	0.00000E+000	1.00005E+000	1.89892E-003	12	..........a	-327.66
	1696	1695	5.79406E-001	9.99904E-001	0.00000E+000	1.00005E+000	1.89121E-003	12	..........a	-327.66
	1700	1699	5.79511E-001	9.99904E-001	0.00000E+000	1.00005E+000	1.88694E-003	12	..........a	-327.66
	1704	1703	5.79565E-001	9.99903E-001	0.00000E+000	1.00005E+000	1.89531E-003	12	..........a	-327.66
	1708	1707	5.79694E-001	9.99905E-001	0.00000E+000	1.00005E+000	1.88657E-003	12	..........a	-327.66
	1712	1711	5.79811E-001	9.99912E-001	0.00000E+000	1.00005E+000	1.87199E-003	12	..........a	-327.66
	1716	1715	5.79939E-001	9.99905E-001	0.00000E+000	1.00005E+000	1.87174E-003	12	..........a	-327.66
	1720	1719	5.80086E-001	9.99907E-001	0.00000E+000	1.00005E+000	1.88054E-003	12	..........a	-327.66
	1724	1723	5.80330E-001	9.99906E-001	0.00000E+000	1.00005E+000	1.87769E-003	12	..........a	-327.66
	1728	1727	5.80437E-001	9.99896E-001	0.00000E+000	1.00005E+000	1.87439E-003	12	..........a	-327.66
	1732	1731	5.80695E-001	9.99901E-001	0.00000E+000	1.00005E+000	1.87482E-003	12	..........a	-327.66
	1736	1735	5.80866E-001	9.99905E-001	0.00000E+000	1.00005E+000	1.87431E-003	12	..........a	-327.66
	1740	1739	5.81145E-001	9.99902E-001	0.00000E+000	1.00005E+000	1.87944E-003	12	..........a	-327.66
	1744	1743	5.81302E-001	9.99903E-001	0.00000E+000	1.00005E+000	1.87199E-003	12	..........a	-327.66
	1748	1747	5.81545E-001	9.99904E-001	0.00000E+000	1.00005E+000	1.87716E-003	12	..........a	-327.66
	1752	1751	5.81866E-001	9.99905E-001	0.00000E+000	1.00005E+000	1.87657E-003	12	..........a	-327.66
	1756	1755	5.82104E-001	9.99900E-001	0.00000E+000	1.00005E+000	1.87587E-003	12	..........a	-327.66
	1760	1759	5.82326E-001	9.99898E-001	0.00000E+000	1.00005E+000	1.87907E-003	12	..........a	-327.66
	1764	1763	5.82518E-001	9.99901E-001	0.00000E+000	1.00005E+000	1.87524E-003	12	..........a	-327.66
	1768	1767	5.82800E-001	9.99898E-001	0.00000E+000	1.00005E+000	1.87802E-003	12	..........a	-327.66
	1772	1771	5.83150E-001	9.99902E-001	0.00000E+000	1.00005E+000	1.87376E-003	12	..........a	-327.66
	1776	1775	5.83421E-001	9.99901E-001	0.00000E+000	1.00005E+000	1.87602E-003	12	..........a	-327.66
	1780	1779	5.83829E-001	9.99905E-001	0.00000E+000	1.00005E+000	1.87554E-003	12	..........a	-327.66
	1784	1783	5.84109E-001	9.99906E-001	0.00000E+000	1.00005E+000	1.87049E-003	12	..........a	-327.66
	1788	1787	5.84511E-001	9.99911E-001	0.00000E+000	1.00005E+000	1.86686E-003	12	..........a	-327.66
	1792	1791	5.84954E-001	9.99910E-001	0.00000E+000	1.00005E+000	1.87286E-003	12	..........a	-327.66
	1796	1795	5.85301E-001	9.99906E-001	0.00000E+000	1.00005E+000	1.86821E-003	12	..........a	-327.66
	1800	1799	5.85759E-001	9.99907E-001	0.00000E+000	1.00005E+000	1.87064E-003	12	..........a	-327.66
	1804	1803	5.86119E-001	9.99912E-001	0.00000E+000	1.00005E+000	1.87244E-003	12	..........a	-327.66
	1808	1807	5.86663E-001	9.99910E-001	0.00000E+000	1.00005E+000	1.87006E-003	12	..........a	-327.66
	1812	1811	5.87091E-001	9.99906E-001	0.00000E+000	1.00005E+000	1.87626E-003	12	..........a	-327.66
	1816	1815	5.87493E-001	9.99909E-001	0.00000E+000	1.00005E+000	1.86937E-003	12	..........a	-327.66
	1820	1819	5.88036E-001	9.99909E-001	0.00000E+000	1.00005E+000	1.87379E-003	12	..........a	-327.66
	1824	1823	5.88435E-001	9.99910E-001	0.00000E+000	1.00005E+000	1.86851E-003	12	..........a	-327.66
	1828	1827	5.89144E-001	9.99907E-001	0.00000E+000	1.00005E+000	1.86751E-003	12	..........a	-327.66
	1832	1831	5.89645E-001	9.99908E-001	0.00000E+000	1.00005E+000	1.86952E-003	12	..........a	-327.66
	1836	1835	5.90404E-001	9.99906E-001	0.00000E+000	1.00005E+000	1.87217E-003	12	..........a	-327.66
	1840	1839	5.91076E-001	9.99907E-001	0.00000E+000	1.00005E+000	1.87767E-003	12	..........a	-327.66
	1844	1843	5.91867E-001	9.99904E-001	0.00000E+000	1.00005E+000	1.86647E-003	12	..........a	-327.66
	1848	1847	5.92622E-001	9.99904E-001	0.00000E+000	1.00005E+000	1.87199E-003	12	..........a	-327.66
	1852	1851	5.93444E-001	9.99906E-001	0.00000E+000	1.00005E+000	1.86747E-003	12	..........a	-327.66
	1856	1855	5.94438E-001	9.99905E-001	0.00000E+000	1.00005E+000	1.86934E-003	12	..........a	-327.66
	1860	1859	5.95507E-001	9.99912E-001	0.00000E+000	1.00005E+000	1.86841E-003	12	..........a	-327.66
	1864	1863	5.96770E-001	9.99900E-001	0.00000E+000	1.00005E+000	1.86117E-003	12	..........a	-327.66
	1868	1867	5.98196E-001	9.99906E-001	0.00000E+000	1.00005E+000	1.86839E-003	12	..........a	-327.66
	1872	1871	5.99786E-001	9.99903E-001	0.00000E+000	1.00005E+000	1.86172E-003	12	..........a	-327.66
	1876	1875	6.01877E-001	9.99900E-001	0.00000E+000	1.00005E+000	1.86057E-003	12	..........a	-327.66
	1880	1879	6.04636E-001	9.99900E-001	0.00000E+000	1.00005E+000	1.86827E-003	12	..........a	-327.66
	1884	1883	6.09379E-001	9.99903E-001	0.00000E+000	1.00005E+000	1.86509E-003	12	..........a	-327.66
	1888	1887	6.18838E-001	9.99907E-001	0.00000E+000	1.00005E+000	1.86284E-003	12	..........a	-327.66
	1892	1891	6.55415E-001	9.99908E-001	0.00000E+000	1.00005E+000	1.86241E-003	12	..........a	-327.66
	1896	1895	8.20972E-001	9.99905E-001	0.00000E+000	1.00005E+000	1.86021E-003	12	..........a	-327.66
	1900	1899	8.71704E-001	9.99902E-001	0.00000E+000	1.00005E+000	1.86442E-003	12	..........a	-327.66
	1904	1903	8.96271E-001	9.99907E-001	0.00000E+000	1.00005E+000	1.86031E-003	12	..........a	-327.66
	1908	1907	9.10329E-001	9.99911E-001	0.00000E+000	1.00005E+000	1.86107E-003	12	..........a	-327.66
	1912	1911	9.22004E-001	9.99908E-001	0.00000E+000	1.00005E+000	1.86229E-003	12	..........a	-327.66
	1916	1915	9.29518E-001	9.99906E-001	0.00000E+000	1.00005E+000	1.86242E-003	12	..........a	-327.66
	1920	1919	9.37534E-001	9.99908E-001	0.00000E+000	1.00005E+000	1.85864E-003	12	..........a	-327.66
	1924	1923	9.45589E-001	9.99906E-001	0.00000E+000	1.00005E+000	1.86509E-003	12	..........a	-327.66
	1928	1927	9.48737E-001	9.99910E-001	0.00000E+000	1.00005E+000	1.85951E-003	12	..........a	-327.66
	1931	1930	9.51178E-001	9.99910E-001	0.00000E+000	1.00005E+000	1.86624E-003	12	..........a	-327.66
EXPERIMENTABORTED	TOGGLE	T	Experiment Aborted