File: GAMRY Chronopotentiometry Discharge.DTA
EXPLAIN
TAG	CHRONOP
TITLE	LABEL	Chronopotentiometry Scan 2	Test &Identifier
DATE	LABEL	9/29/2021	Date
TIME	LABEL	11:57:56	Time
NOTES	NOTES	1	&Notes...

PSTAT	PSTAT	REF3000-24102	Potentiostat
IPRESTEP	QUANT	0.00000E+000	Pre-step Current (A)
TPRESTEP	QUANT	2.00000E+000	Pre-step Delay &Time (s)
ISTEP1	QUANT	-5.00000E-001	Step 1 Current (A)
TSTEP1	QUANT	1.00000E+004	Step 1 Time (s)
ISTEP2	QUANT	0.00000E+000	Step 2 Current (A)
TSTEP2	QUANT	0.00000E+000	Step 2 Time (s)
SAMPLETIME	QUANT	1.00000E+000	Sa&mple Period (s)
VLIMITLOWER	QUANT	-3.00000E-001	Lower Limit &V (V)
VLIMITUPPER	QUANT	1.60000E+000	Upper Limit &V (V)
DECIMATE	TOGGLE	F	Decimate
AREA	QUANT	2.50000E+001	Electrode &Area (cm^2)
ELECTRODETYPE	SELECTOR	0	Electrode Type
STRIPPING	TOGGLE	F	Used for Stripping
POLARITY	TOGGLE	F	Signal Polarity
EQDELAY	QUANT	1.00000E+000	Equil. &Time (s)
CONDIT	TWOPARAM	F	1.50000E+001	0.00000E+000	Conditionin&g	Time(s)	E(V)
DELAY	TWOPARAM	F	3.00000E+002	1.00000E-001	Init. De&lay	Time(s)	Stab.(mV/s)
SAMPLINGMODE	SELECTOR	1	Sampling &Mode
EOC	QUANT	0	Open Circuit (V)
PSTATMODEL	IQUANT	5	Pstat Model
PSTATSECTION	LABEL	REF3000-24102	Pstat Section
PSTATSERIALNO	LABEL	24102	Pstat Serial Number
CTRLMODE	IQUANT	0	Control Mode
ELECTROMETER	IQUANT	0	RE=0 or CS=1
IESTAB	IQUANT	0	I/E Stability
CASPEED	IQUANT	4	Control Amp Speed
CONVENTION	IQUANT	1	Current Convention
ICHRANGE	IQUANT	2	Ich Range
ICHRANGEMODE	TOGGLE	T	Ich Auto Range
ICHOFFSETENABLE	TOGGLE	F	Ich Offset Enable
ICHOFFSET	QUANT	0	Ich Offset (V)
ICHFILTER	IQUANT	3	Ich Filter
VCHRANGE	IQUANT	3	Vch Range
VCHRANGEMODE	TOGGLE	T	Vch Auto Range
VCHOFFSETENABLE	TOGGLE	F	Vch Offset Enable
VCHOFFSET	QUANT	0	Vch Offset (V)
VCHFILTER	IQUANT	3	Vch Filter
ACHRANGE	IQUANT	2	Ach Range
ACHOFFSETENABLE	TOGGLE	F	Ach Offset Enable
ACHOFFSET	QUANT	0	Ach Offset (V)
ACHFILTER	IQUANT	1	Ach Filter
IERANGELOWERLIMIT	IQUANT	2	I/E Range Lower Limit
IERANGEMODE	TOGGLE	F	I/E AutoRange
IERANGE	IQUANT	12	I/E Range
POSFEEDENABLE	TOGGLE	F	Positive Feedback IR Comp
POSFEEDRESISTANCE	QUANT	0	Positive Feedback Resistance (ohm)
ACHSELECT	IQUANT	0	Ach Select
SENSECABLEID	IQUANT	13	Sense Cable ID
PWRCABLEID	IQUANT	13	Power Cable ID
DCCALDATE	LABEL	8/9/2021	DC Calibration Date
ACCALDATE	LABEL	8/9/2021	AC Calibration Date
THERMOSELECT	IQUANT	1	Thermo Select
FRAMEWORKVERSION	LABEL	7.8.4	Framework Version
INSTRUMENTVERSION	LABEL	4.42	Instrument Version
COMPLIANCEVOLTAGE	IQUANT	0	Compliance Voltage
EXPERIMENTABORTED	TOGGLE	T	Experiment Aborted
CURVE	TABLE	2497
	Pt	T	Vf	Im	Vu	Sig	Ach	IERange	Over	Temp
	#	s	V vs. Ref.	A	V	V	V	#	bits	deg C
	0	-1	5.17375E-001	3.39474E-004	0.00000E+000	2.50041E-005	1.91292E-003	12	..........a	-327.66
	6	5	4.93082E-001	-4.99677E-001	0.00000E+000	-5.00025E-001	1.93299E-003	12	..........a	-327.66
	12	11	4.92992E-001	-4.99682E-001	0.00000E+000	-5.00025E-001	1.93446E-003	12	..........a	-327.66
	18	17	4.92906E-001	-4.99686E-001	0.00000E+000	-5.00025E-001	1.92169E-003	12	..........a	-327.66
	24	23	4.92819E-001	-4.99681E-001	0.00000E+000	-5.00025E-001	1.93347E-003	12	..........a	-327.66
	30	29	4.92720E-001	-4.99683E-001	0.00000E+000	-5.00025E-001	1.93304E-003	12	..........a	-327.66
	36	35	4.92630E-001	-4.99686E-001	0.00000E+000	-5.00025E-001	1.92824E-003	12	..........a	-327.66
	42	41	4.92545E-001	-4.99685E-001	0.00000E+000	-5.00025E-001	1.93952E-003	12	..........a	-327.66
	48	47	4.92434E-001	-4.99689E-001	0.00000E+000	-5.00025E-001	1.96069E-003	12	..........a	-327.66
	54	53	4.92359E-001	-4.99686E-001	0.00000E+000	-5.00025E-001	1.93327E-003	12	..........a	-327.66
	60	59	4.92270E-001	-4.99688E-001	0.00000E+000	-5.00025E-001	1.93832E-003	12	..........a	-327.66
	66	65	4.92159E-001	-4.99690E-001	0.00000E+000	-5.00025E-001	1.94326E-003	12	..........a	-327.66
	72	71	4.92060E-001	-4.99686E-001	0.00000E+000	-5.00025E-001	1.93889E-003	12	..........a	-327.66
	78	77	4.91927E-001	-4.99684E-001	0.00000E+000	-5.00025E-001	1.94822E-003	12	..........a	-327.66
	84	83	4.91843E-001	-4.99691E-001	0.00000E+000	-5.00025E-001	1.94757E-003	12	..........a	-327.66
	90	89	4.91703E-001	-4.99687E-001	0.00000E+000	-5.00025E-001	1.93124E-003	12	..........a	-327.66
	96	95	4.91573E-001	-4.99694E-001	0.00000E+000	-5.00025E-001	1.93866E-003	12	..........a	-327.66
	102	101	4.91476E-001	-4.99691E-001	0.00000E+000	-5.00025E-001	1.93426E-003	12	..........a	-327.66
	108	107	4.91314E-001	-4.99692E-001	0.00000E+000	-5.00025E-001	1.94211E-003	12	..........a	-327.66
	114	113	4.91180E-001	-4.99690E-001	0.00000E+000	-5.00025E-001	1.94517E-003	12	..........a	-327.66
	120	119	4.91036E-001	-4.99690E-001	0.00000E+000	-5.00025E-001	1.93946E-003	12	..........a	-327.66
	126	125	4.90877E-001	-4.99686E-001	0.00000E+000	-5.00025E-001	1.93372E-003	12	..........a	-327.66
	132	131	4.90757E-001	-4.99685E-001	0.00000E+000	-5.00025E-001	1.93106E-003	12	..........a	-327.66
	138	137	4.90595E-001	-4.99685E-001	0.00000E+000	-5.00025E-001	1.93644E-003	12	..........a	-327.66
	144	143	4.90425E-001	-4.99698E-001	0.00000E+000	-5.00025E-001	1.93527E-003	12	..........a	-327.66
	150	149	4.90263E-001	-4.99681E-001	0.00000E+000	-5.00025E-001	1.94217E-003	12	..........a	-327.66
	156	155	4.90081E-001	-4.99684E-001	0.00000E+000	-5.00025E-001	1.93676E-003	12	..........a	-327.66
	162	161	4.89913E-001	-4.99684E-001	0.00000E+000	-5.00025E-001	1.93816E-003	12	..........a	-327.66
	168	167	4.89751E-001	-4.99683E-001	0.00000E+000	-5.00025E-001	1.93207E-003	12	..........a	-327.66
	174	173	4.89530E-001	-4.99685E-001	0.00000E+000	-5.00025E-001	1.92891E-003	12	..........a	-327.66
	180	179	4.89340E-001	-4.99690E-001	0.00000E+000	-5.00025E-001	1.93627E-003	12	..........a	-327.66
	186	185	4.89127E-001	-4.99683E-001	0.00000E+000	-5.00025E-001	1.94307E-003	12	..........a	-327.66
	192	191	4.88916E-001	-4.99693E-001	0.00000E+000	-5.00025E-001	1.95437E-003	12	..........a	-327.66
	198	197	4.88715E-001	-4.99685E-001	0.00000E+000	-5.00025E-001	1.93097E-003	12	..........a	-327.66
	204	203	4.88505E-001	-4.99695E-001	0.00000E+000	-5.00025E-001	1.94161E-003	12	..........a	-327.66
	210	209	4.88293E-001	-4.99693E-001	0.00000E+000	-5.00025E-001	1.94477E-003	12	..........a	-327.66
	216	215	4.88072E-001	-4.99692E-001	0.00000E+000	-5.00025E-001	1.93969E-003	12	..........a	-327.66
	222	221	4.87818E-001	-4.99696E-001	0.00000E+000	-5.00025E-001	1.94519E-003	12	..........a	-327.66
	228	227	4.87627E-001	-4.99685E-001	0.00000E+000	-5.00025E-001	1.93271E-003	12	..........a	-327.66
	234	233	4.87376E-001	-4.99683E-001	0.00000E+000	-5.00025E-001	1.92772E-003	12	..........a	-327.66
	240	239	4.87142E-001	-4.99688E-001	0.00000E+000	-5.00025E-001	1.93827E-003	12	..........a	-327.66
	246	245	4.86907E-001	-4.99693E-001	0.00000E+000	-5.00025E-001	1.95377E-003	12	..........a	-327.66
	252	251	4.86679E-001	-4.99693E-001	0.00000E+000	-5.00025E-001	1.94592E-003	12	..........a	-327.66
	258	257	4.86450E-001	-4.99683E-001	0.00000E+000	-5.00025E-001	1.93531E-003	12	..........a	-327.66
	264	263	4.86233E-001	-4.99688E-001	0.00000E+000	-5.00025E-001	1.94234E-003	12	..........a	-327.66
	270	269	4.86002E-001	-4.99691E-001	0.00000E+000	-5.00025E-001	1.94351E-003	12	..........a	-327.66
	276	275	4.85809E-001	-4.99692E-001	0.00000E+000	-5.00025E-001	1.94912E-003	12	..........a	-327.66
	282	281	4.85580E-001	-4.99688E-001	0.00000E+000	-5.00025E-001	1.93556E-003	12	..........a	-327.66
	288	287	4.85372E-001	-4.99690E-001	0.00000E+000	-5.00025E-001	1.94501E-003	12	..........a	-327.66
	294	293	4.85158E-001	-4.99691E-001	0.00000E+000	-5.00025E-001	1.94532E-003	12	..........a	-327.66
	300	299	4.84934E-001	-4.99685E-001	0.00000E+000	-5.00025E-001	1.95009E-003	12	..........a	-327.66
	306	305	4.84710E-001	-4.99689E-001	0.00000E+000	-5.00025E-001	1.95142E-003	12	..........a	-327.66
	312	311	4.84506E-001	-4.99687E-001	0.00000E+000	-5.00025E-001	1.94572E-003	12	..........a	-327.66
	318	317	4.84272E-001	-4.99694E-001	0.00000E+000	-5.00025E-001	1.94559E-003	12	..........a	-327.66
	324	323	4.84089E-001	-4.99689E-001	0.00000E+000	-5.00025E-001	1.94231E-003	12	..........a	-327.66
	330	329	4.83867E-001	-4.99687E-001	0.00000E+000	-5.00025E-001	1.93792E-003	12	..........a	-327.66
	336	335	4.83679E-001	-4.99692E-001	0.00000E+000	-5.00025E-001	1.93534E-003	12	..........a	-327.66
	342	341	4.83505E-001	-4.99689E-001	0.00000E+000	-5.00025E-001	1.93557E-003	12	..........a	-327.66
	348	347	4.83291E-001	-4.99685E-001	0.00000E+000	-5.00025E-001	1.93796E-003	12	..........a	-327.66
	354	353	4.83108E-001	-4.99682E-001	0.00000E+000	-5.00025E-001	1.93794E-003	12	..........a	-327.66
	360	359	4.82920E-001	-4.99680E-001	0.00000E+000	-5.00025E-001	1.92789E-003	12	..........a	-327.66
	366	365	4.82679E-001	-4.99689E-001	0.00000E+000	-5.00025E-001	1.93727E-003	12	..........a	-327.66
	372	371	4.82525E-001	-4.99698E-001	0.00000E+000	-5.00025E-001	1.94817E-003	12	..........a	-327.66
	378	377	4.82332E-001	-4.99691E-001	0.00000E+000	-5.00025E-001	1.94126E-003	12	..........a	-327.66
	384	383	4.82132E-001	-4.99683E-001	0.00000E+000	-5.00025E-001	1.93476E-003	12	..........a	-327.66
	390	389	4.81952E-001	-4.99685E-001	0.00000E+000	-5.00025E-001	1.92467E-003	12	..........a	-327.66
	396	395	4.81768E-001	-4.99699E-001	0.00000E+000	-5.00025E-001	1.93112E-003	12	..........a	-327.66
	402	401	4.81584E-001	-4.99695E-001	0.00000E+000	-5.00025E-001	1.94207E-003	12	..........a	-327.66
	408	407	4.81402E-001	-4.99694E-001	0.00000E+000	-5.00025E-001	1.94322E-003	12	..........a	-327.66
	414	413	4.81206E-001	-4.99688E-001	0.00000E+000	-5.00025E-001	1.94232E-003	12	..........a	-327.66
	420	419	4.81016E-001	-4.99690E-001	0.00000E+000	-5.00025E-001	1.93992E-003	12	..........a	-327.66
	426	425	4.80847E-001	-4.99687E-001	0.00000E+000	-5.00025E-001	1.94099E-003	12	..........a	-327.66
	432	431	4.80630E-001	-4.99684E-001	0.00000E+000	-5.00025E-001	1.95322E-003	12	..........a	-327.66
	438	437	4.80459E-001	-4.99682E-001	0.00000E+000	-5.00025E-001	1.93249E-003	12	..........a	-327.66
	444	443	4.80281E-001	-4.99689E-001	0.00000E+000	-5.00025E-001	1.93687E-003	12	..........a	-327.66
	450	449	4.80085E-001	-4.99695E-001	0.00000E+000	-5.00025E-001	1.93611E-003	12	..........a	-327.66
	456	455	4.79933E-001	-4.99683E-001	0.00000E+000	-5.00025E-001	1.93916E-003	12	..........a	-327.66
	462	461	4.79744E-001	-4.99686E-001	0.00000E+000	-5.00025E-001	1.93246E-003	12	..........a	-327.66
	468	467	4.79567E-001	-4.99685E-001	0.00000E+000	-5.00025E-001	1.93676E-003	12	..........a	-327.66
	474	473	4.79400E-001	-4.99682E-001	0.00000E+000	-5.00025E-001	1.93602E-003	12	..........a	-327.66
	480	479	4.79201E-001	-4.99680E-001	0.00000E+000	-5.00025E-001	1.93736E-003	12	..........a	-327.66
	486	485	4.79050E-001	-4.99689E-001	0.00000E+000	-5.00025E-001	1.94509E-003	12	..........a	-327.66
	492	491	4.78859E-001	-4.99689E-001	0.00000E+000	-5.00025E-001	1.94666E-003	12	..........a	-327.66
	498	497	4.78714E-001	-4.99691E-001	0.00000E+000	-5.00025E-001	1.94154E-003	12	..........a	-327.66
	504	503	4.78544E-001	-4.99700E-001	0.00000E+000	-5.00025E-001	1.94111E-003	12	..........a	-327.66
	510	509	4.78341E-001	-4.99684E-001	0.00000E+000	-5.00025E-001	1.93329E-003	12	..........a	-327.66
	516	515	4.78179E-001	-4.99693E-001	0.00000E+000	-5.00025E-001	1.94962E-003	12	..........a	-327.66
	522	521	4.77993E-001	-4.99687E-001	0.00000E+000	-5.00025E-001	1.95207E-003	12	..........a	-327.66
	528	527	4.77816E-001	-4.99687E-001	0.00000E+000	-5.00025E-001	1.93709E-003	12	..........a	-327.66
	534	533	4.77614E-001	-4.99684E-001	0.00000E+000	-5.00025E-001	1.94507E-003	12	..........a	-327.66
	540	539	4.77453E-001	-4.99692E-001	0.00000E+000	-5.00025E-001	1.93519E-003	12	..........a	-327.66
	546	545	4.77260E-001	-4.99689E-001	0.00000E+000	-5.00025E-001	1.95486E-003	12	..........a	-327.66
	552	551	4.77109E-001	-4.99689E-001	0.00000E+000	-5.00025E-001	1.93592E-003	12	..........a	-327.66
	558	557	4.76904E-001	-4.99689E-001	0.00000E+000	-5.00025E-001	1.94982E-003	12	..........a	-327.66
	564	563	4.76742E-001	-4.99689E-001	0.00000E+000	-5.00025E-001	1.93764E-003	12	..........a	-327.66
	570	569	4.76560E-001	-4.99681E-001	0.00000E+000	-5.00025E-001	1.94167E-003	12	..........a	-327.66
	576	575	4.76353E-001	-4.99682E-001	0.00000E+000	-5.00025E-001	1.94699E-003	12	..........a	-327.66
	582	581	4.76187E-001	-4.99689E-001	0.00000E+000	-5.00025E-001	1.93174E-003	12	..........a	-327.66
	588	587	4.76014E-001	-4.99682E-001	0.00000E+000	-5.00025E-001	1.94072E-003	12	..........a	-327.66
	594	593	4.75815E-001	-4.99686E-001	0.00000E+000	-5.00025E-001	1.93201E-003	12	..........a	-327.66
	600	599	4.75651E-001	-4.99690E-001	0.00000E+000	-5.00025E-001	1.94769E-003	12	..........a	-327.66
	606	605	4.75445E-001	-4.99687E-001	0.00000E+000	-5.00025E-001	1.93286E-003	12	..........a	-327.66
	612	611	4.75275E-001	-4.99689E-001	0.00000E+000	-5.00025E-001	1.94042E-003	12	..........a	-327.66
	618	617	4.75094E-001	-4.99684E-001	0.00000E+000	-5.00025E-001	1.92659E-003	12	..........a	-327.66
	624	623	4.74905E-001	-4.99691E-001	0.00000E+000	-5.00025E-001	1.93499E-003	12	..........a	-327.66
	630	629	4.74732E-001	-4.99690E-001	0.00000E+000	-5.00025E-001	1.95344E-003	12	..........a	-327.66
	636	635	4.74537E-001	-4.99686E-001	0.00000E+000	-5.00025E-001	1.93254E-003	12	..........a	-327.66
	642	641	4.74356E-001	-4.99683E-001	0.00000E+000	-5.00025E-001	1.93159E-003	12	..........a	-327.66
	648	647	4.74205E-001	-4.99691E-001	0.00000E+000	-5.00025E-001	1.92812E-003	12	..........a	-327.66
	654	653	4.73996E-001	-4.99686E-001	0.00000E+000	-5.00025E-001	1.93316E-003	12	..........a	-327.66
	660	659	4.73837E-001	-4.99685E-001	0.00000E+000	-5.00025E-001	1.92652E-003	12	..........a	-327.66
	666	665	4.73673E-001	-4.99691E-001	0.00000E+000	-5.00025E-001	1.93616E-003	12	..........a	-327.66
	672	671	4.73477E-001	-4.99693E-001	0.00000E+000	-5.00025E-001	1.94007E-003	12	..........a	-327.66
	678	677	4.73311E-001	-4.99692E-001	0.00000E+000	-5.00025E-001	1.92774E-003	12	..........a	-327.66
	684	683	4.73137E-001	-4.99692E-001	0.00000E+000	-5.00025E-001	1.93951E-003	12	..........a	-327.66
	690	689	4.72927E-001	-4.99686E-001	0.00000E+000	-5.00025E-001	1.93199E-003	12	..........a	-327.66
	696	695	4.72779E-001	-4.99685E-001	0.00000E+000	-5.00025E-001	1.93161E-003	12	..........a	-327.66
	702	701	4.72583E-001	-4.99690E-001	0.00000E+000	-5.00025E-001	1.93902E-003	12	..........a	-327.66
	708	707	4.72399E-001	-4.99689E-001	0.00000E+000	-5.00025E-001	1.93619E-003	12	..........a	-327.66
	714	713	4.72214E-001	-4.99684E-001	0.00000E+000	-5.00025E-001	1.93381E-003	12	..........a	-327.66
	720	719	4.72019E-001	-4.99692E-001	0.00000E+000	-5.00025E-001	1.92599E-003	12	..........a	-327.66
	726	725	4.71882E-001	-4.99689E-001	0.00000E+000	-5.00025E-001	1.92361E-003	12	..........a	-327.66
	732	731	4.71702E-001	-4.99689E-001	0.00000E+000	-5.00025E-001	1.94307E-003	12	..........a	-327.66
	738	737	4.71501E-001	-4.99690E-001	0.00000E+000	-5.00025E-001	1.94349E-003	12	..........a	-327.66
	744	743	4.71335E-001	-4.99691E-001	0.00000E+000	-5.00025E-001	1.93732E-003	12	..........a	-327.66
	750	749	4.71168E-001	-4.99688E-001	0.00000E+000	-5.00025E-001	1.94994E-003	12	..........a	-327.66
	756	755	4.70982E-001	-4.99685E-001	0.00000E+000	-5.00025E-001	1.94241E-003	12	..........a	-327.66
	762	761	4.70804E-001	-4.99688E-001	0.00000E+000	-5.00025E-001	1.93506E-003	12	..........a	-327.66
	768	767	4.70648E-001	-4.99689E-001	0.00000E+000	-5.00025E-001	1.93332E-003	12	..........a	-327.66
	774	773	4.70463E-001	-4.99690E-001	0.00000E+000	-5.00025E-001	1.93337E-003	12	..........a	-327.66
	780	779	4.70283E-001	-4.99686E-001	0.00000E+000	-5.00025E-001	1.93077E-003	12	..........a	-327.66
	786	785	4.70101E-001	-4.99694E-001	0.00000E+000	-5.00025E-001	1.91799E-003	12	..........a	-327.66
	792	791	4.69931E-001	-4.99687E-001	0.00000E+000	-5.00025E-001	1.93201E-003	12	..........a	-327.66
	798	797	4.69749E-001	-4.99692E-001	0.00000E+000	-5.00025E-001	1.94714E-003	12	..........a	-327.66
	804	803	4.69583E-001	-4.99696E-001	0.00000E+000	-5.00025E-001	1.93516E-003	12	..........a	-327.66
	810	809	4.69410E-001	-4.99686E-001	0.00000E+000	-5.00025E-001	1.93431E-003	12	..........a	-327.66
	816	815	4.69210E-001	-4.99686E-001	0.00000E+000	-5.00025E-001	1.93642E-003	12	..........a	-327.66
	822	821	4.69078E-001	-4.99692E-001	0.00000E+000	-5.00025E-001	1.94419E-003	12	..........a	-327.66
	828	827	4.68888E-001	-4.99689E-001	0.00000E+000	-5.00025E-001	1.93206E-003	12	..........a	-327.66
	834	833	4.68699E-001	-4.99695E-001	0.00000E+000	-5.00025E-001	1.93709E-003	12	..........a	-327.66
	840	839	4.68526E-001	-4.99683E-001	0.00000E+000	-5.00025E-001	1.93199E-003	12	..........a	-327.66
	846	845	4.68352E-001	-4.99693E-001	0.00000E+000	-5.00025E-001	1.94391E-003	12	..........a	-327.66
	852	851	4.68183E-001	-4.99693E-001	0.00000E+000	-5.00025E-001	1.93319E-003	12	..........a	-327.66
	858	857	4.68003E-001	-4.99690E-001	0.00000E+000	-5.00025E-001	1.92811E-003	12	..........a	-327.66
	864	863	4.67818E-001	-4.99694E-001	0.00000E+000	-5.00025E-001	1.93474E-003	12	..........a	-327.66
	870	869	4.67654E-001	-4.99697E-001	0.00000E+000	-5.00025E-001	1.93402E-003	12	..........a	-327.66
	876	875	4.67480E-001	-4.99701E-001	0.00000E+000	-5.00025E-001	1.94331E-003	12	..........a	-327.66
	882	881	4.67294E-001	-4.99695E-001	0.00000E+000	-5.00025E-001	1.93716E-003	12	..........a	-327.66
	888	887	4.67117E-001	-4.99688E-001	0.00000E+000	-5.00025E-001	1.93802E-003	12	..........a	-327.66
	894	893	4.66957E-001	-4.99699E-001	0.00000E+000	-5.00025E-001	1.94677E-003	12	..........a	-327.66
	900	899	4.66781E-001	-4.99695E-001	0.00000E+000	-5.00025E-001	1.92671E-003	12	..........a	-327.66
	906	905	4.66613E-001	-4.99690E-001	0.00000E+000	-5.00025E-001	1.92786E-003	12	..........a	-327.66
	912	911	4.66417E-001	-4.99686E-001	0.00000E+000	-5.00025E-001	1.93024E-003	12	..........a	-327.66
	918	917	4.66243E-001	-4.99692E-001	0.00000E+000	-5.00025E-001	1.92966E-003	12	..........a	-327.66
	924	923	4.66074E-001	-4.99692E-001	0.00000E+000	-5.00025E-001	1.92851E-003	12	..........a	-327.66
	930	929	4.65892E-001	-4.99694E-001	0.00000E+000	-5.00025E-001	1.94027E-003	12	..........a	-327.66
	936	935	4.65741E-001	-4.99692E-001	0.00000E+000	-5.00025E-001	1.92099E-003	12	..........a	-327.66
	942	941	4.65547E-001	-4.99692E-001	0.00000E+000	-5.00025E-001	1.93099E-003	12	..........a	-327.66
	948	947	4.65367E-001	-4.99690E-001	0.00000E+000	-5.00025E-001	1.93912E-003	12	..........a	-327.66
	954	953	4.65207E-001	-4.99689E-001	0.00000E+000	-5.00025E-001	1.93914E-003	12	..........a	-327.66
	960	959	4.65013E-001	-4.99692E-001	0.00000E+000	-5.00025E-001	1.93307E-003	12	..........a	-327.66
	966	965	4.64861E-001	-4.99703E-001	0.00000E+000	-5.00025E-001	1.94876E-003	12	..........a	-327.66
	972	971	4.64682E-001	-4.99700E-001	0.00000E+000	-5.00025E-001	1.91951E-003	12	..........a	-327.66
	978	977	4.64510E-001	-4.99695E-001	0.00000E+000	-5.00025E-001	1.92787E-003	12	..........a	-327.66
	984	983	4.64353E-001	-4.99703E-001	0.00000E+000	-5.00025E-001	1.93627E-003	12	..........a	-327.66
	990	989	4.64167E-001	-4.99691E-001	0.00000E+000	-5.00025E-001	1.91964E-003	12	..........a	-327.66
	996	995	4.63991E-001	-4.99698E-001	0.00000E+000	-5.00025E-001	1.94602E-003	12	..........a	-327.66
	1002	1001	4.63831E-001	-4.99693E-001	0.00000E+000	-5.00025E-001	1.92297E-003	12	..........a	-327.66
	1008	1007	4.63641E-001	-4.99694E-001	0.00000E+000	-5.00025E-001	1.92652E-003	12	..........a	-327.66
	1014	1013	4.63504E-001	-4.99699E-001	0.00000E+000	-5.00025E-001	1.92954E-003	12	..........a	-327.66
	1020	1019	4.63314E-001	-4.99700E-001	0.00000E+000	-5.00025E-001	1.93182E-003	12	..........a	-327.66
	1026	1025	4.63139E-001	-4.99703E-001	0.00000E+000	-5.00025E-001	1.92146E-003	12	..........a	-327.66
	1032	1031	4.62965E-001	-4.99712E-001	0.00000E+000	-5.00025E-001	1.94257E-003	12	..........a	-327.66
	1038	1037	4.62798E-001	-4.99706E-001	0.00000E+000	-5.00025E-001	1.93836E-003	12	..........a	-327.66
	1044	1043	4.62629E-001	-4.99697E-001	0.00000E+000	-5.00025E-001	1.91929E-003	12	..........a	-327.66
	1050	1049	4.62475E-001	-4.99705E-001	0.00000E+000	-5.00025E-001	1.92541E-003	12	..........a	-327.66
	1056	1055	4.62272E-001	-4.99706E-001	0.00000E+000	-5.00025E-001	1.92644E-003	12	..........a	-327.66
	1062	1061	4.62123E-001	-4.99708E-001	0.00000E+000	-5.00025E-001	1.94571E-003	12	..........a	-327.66
	1068	1067	4.61947E-001	-4.99707E-001	0.00000E+000	-5.00025E-001	1.93851E-003	12	..........a	-327.66
	1074	1073	4.61758E-001	-4.99719E-001	0.00000E+000	-5.00025E-001	1.93796E-003	12	..........a	-327.66
	1080	1079	4.61579E-001	-4.99714E-001	0.00000E+000	-5.00025E-001	1.93172E-003	12	..........a	-327.66
	1086	1085	4.61415E-001	-4.99711E-001	0.00000E+000	-5.00025E-001	1.94401E-003	12	..........a	-327.66
	1092	1091	4.61242E-001	-4.99712E-001	0.00000E+000	-5.00025E-001	1.93434E-003	12	..........a	-327.66
	1098	1097	4.61085E-001	-4.99716E-001	0.00000E+000	-5.00025E-001	1.93752E-003	12	..........a	-327.66
	1104	1103	4.60914E-001	-4.99716E-001	0.00000E+000	-5.00025E-001	1.92572E-003	12	..........a	-327.66
	1110	1109	4.60770E-001	-4.99712E-001	0.00000E+000	-5.00025E-001	1.91696E-003	12	..........a	-327.66
	1116	1115	4.60617E-001	-4.99718E-001	0.00000E+000	-5.00025E-001	1.93529E-003	12	..........a	-327.66
	1122	1121	4.60437E-001	-4.99714E-001	0.00000E+000	-5.00025E-001	1.94196E-003	12	..........a	-327.66
	1128	1127	4.60288E-001	-4.99720E-001	0.00000E+000	-5.00025E-001	1.93091E-003	12	..........a	-327.66
	1134	1133	4.60100E-001	-4.99717E-001	0.00000E+000	-5.00025E-001	1.93461E-003	12	..........a	-327.66
	1140	1139	4.59935E-001	-4.99717E-001	0.00000E+000	-5.00025E-001	1.93047E-003	12	..........a	-327.66
	1146	1145	4.59767E-001	-4.99721E-001	0.00000E+000	-5.00025E-001	1.92944E-003	12	..........a	-327.66
	1152	1151	4.59576E-001	-4.99727E-001	0.00000E+000	-5.00025E-001	1.93547E-003	12	..........a	-327.66
	1158	1157	4.59422E-001	-4.99727E-001	0.00000E+000	-5.00025E-001	1.93452E-003	12	..........a	-327.66
	1164	1163	4.59266E-001	-4.99724E-001	0.00000E+000	-5.00025E-001	1.93864E-003	12	..........a	-327.66
	1170	1169	4.59087E-001	-4.99729E-001	0.00000E+000	-5.00025E-001	1.92809E-003	12	..........a	-327.66
	1176	1175	4.58925E-001	-4.99723E-001	0.00000E+000	-5.00025E-001	1.92367E-003	12	..........a	-327.66
	1182	1181	4.58751E-001	-4.99724E-001	0.00000E+000	-5.00025E-001	1.92567E-003	12	..........a	-327.66
	1188	1187	4.58574E-001	-4.99728E-001	0.00000E+000	-5.00025E-001	1.91977E-003	12	..........a	-327.66
	1194	1193	4.58397E-001	-4.99705E-001	0.00000E+000	-5.00025E-001	1.92946E-003	12	..........a	-327.66
	1200	1199	4.58253E-001	-4.99689E-001	0.00000E+000	-5.00025E-001	1.92172E-003	12	..........a	-327.66
	1206	1205	4.58078E-001	-4.99682E-001	0.00000E+000	-5.00025E-001	1.92416E-003	12	..........a	-327.66
	1212	1211	4.57904E-001	-4.99688E-001	0.00000E+000	-5.00025E-001	1.94184E-003	12	..........a	-327.66
	1218	1217	4.57730E-001	-4.99686E-001	0.00000E+000	-5.00025E-001	1.93046E-003	12	..........a	-327.66
	1224	1223	4.57566E-001	-4.99681E-001	0.00000E+000	-5.00025E-001	1.93802E-003	12	..........a	-327.66
	1230	1229	4.57408E-001	-4.99683E-001	0.00000E+000	-5.00025E-001	1.93424E-003	12	..........a	-327.66
	1236	1235	4.57238E-001	-4.99682E-001	0.00000E+000	-5.00025E-001	1.93506E-003	12	..........a	-327.66
	1242	1241	4.57075E-001	-4.99681E-001	0.00000E+000	-5.00025E-001	1.92437E-003	12	..........a	-327.66
	1248	1247	4.56875E-001	-4.99686E-001	0.00000E+000	-5.00025E-001	1.94186E-003	12	..........a	-327.66
	1254	1253	4.56741E-001	-4.99682E-001	0.00000E+000	-5.00025E-001	1.93196E-003	12	..........a	-327.66
	1260	1259	4.56553E-001	-4.99689E-001	0.00000E+000	-5.00025E-001	1.91596E-003	12	..........a	-327.66
	1266	1265	4.56377E-001	-4.99686E-001	0.00000E+000	-5.00025E-001	1.93439E-003	12	..........a	-327.66
	1272	1271	4.56226E-001	-4.99685E-001	0.00000E+000	-5.00025E-001	1.93429E-003	12	..........a	-327.66
	1278	1277	4.56045E-001	-4.99682E-001	0.00000E+000	-5.00025E-001	1.92454E-003	12	..........a	-327.66
	1284	1283	4.55880E-001	-4.99683E-001	0.00000E+000	-5.00025E-001	1.92336E-003	12	..........a	-327.66
	1290	1289	4.55717E-001	-4.99681E-001	0.00000E+000	-5.00025E-001	1.91947E-003	12	..........a	-327.66
	1296	1295	4.55542E-001	-4.99686E-001	0.00000E+000	-5.00025E-001	1.93454E-003	12	..........a	-327.66
	1302	1301	4.55373E-001	-4.99682E-001	0.00000E+000	-5.00025E-001	1.92954E-003	12	..........a	-327.66
	1308	1307	4.55204E-001	-4.99684E-001	0.00000E+000	-5.00025E-001	1.93794E-003	12	..........a	-327.66
	1314	1313	4.55031E-001	-4.99683E-001	0.00000E+000	-5.00025E-001	1.92304E-003	12	..........a	-327.66
	1320	1319	4.54859E-001	-4.99686E-001	0.00000E+000	-5.00025E-001	1.93514E-003	12	..........a	-327.66
	1326	1325	4.54700E-001	-4.99686E-001	0.00000E+000	-5.00025E-001	1.93691E-003	12	..........a	-327.66
	1332	1331	4.54520E-001	-4.99689E-001	0.00000E+000	-5.00025E-001	1.94299E-003	12	..........a	-327.66
	1338	1337	4.54361E-001	-4.99688E-001	0.00000E+000	-5.00025E-001	1.93282E-003	12	..........a	-327.66
	1344	1343	4.54194E-001	-4.99698E-001	0.00000E+000	-5.00025E-001	1.92886E-003	12	..........a	-327.66
	1350	1349	4.54033E-001	-4.99706E-001	0.00000E+000	-5.00025E-001	1.92147E-003	12	..........a	-327.66
	1356	1355	4.53880E-001	-4.99705E-001	0.00000E+000	-5.00025E-001	1.92589E-003	12	..........a	-327.66
	1362	1361	4.53674E-001	-4.99722E-001	0.00000E+000	-5.00025E-001	1.93042E-003	12	..........a	-327.66
	1368	1367	4.53531E-001	-4.99723E-001	0.00000E+000	-5.00025E-001	1.93544E-003	12	..........a	-327.66
	1374	1373	4.53362E-001	-4.99723E-001	0.00000E+000	-5.00025E-001	1.93276E-003	12	..........a	-327.66
	1380	1379	4.53174E-001	-4.99720E-001	0.00000E+000	-5.00025E-001	1.93211E-003	12	..........a	-327.66
	1386	1385	4.53033E-001	-4.99723E-001	0.00000E+000	-5.00025E-001	1.92539E-003	12	..........a	-327.66
	1392	1391	4.52854E-001	-4.99735E-001	0.00000E+000	-5.00025E-001	1.93899E-003	12	..........a	-327.66
	1398	1397	4.52699E-001	-4.99731E-001	0.00000E+000	-5.00025E-001	1.92594E-003	12	..........a	-327.66
	1404	1403	4.52518E-001	-4.99738E-001	0.00000E+000	-5.00025E-001	1.93966E-003	12	..........a	-327.66
	1410	1409	4.52323E-001	-4.99735E-001	0.00000E+000	-5.00025E-001	1.93516E-003	12	..........a	-327.66
	1416	1415	4.52172E-001	-4.99737E-001	0.00000E+000	-5.00025E-001	1.93304E-003	12	..........a	-327.66
	1422	1421	4.51993E-001	-4.99741E-001	0.00000E+000	-5.00025E-001	1.94382E-003	12	..........a	-327.66
	1428	1427	4.51824E-001	-4.99735E-001	0.00000E+000	-5.00025E-001	1.94014E-003	12	..........a	-327.66
	1434	1433	4.51675E-001	-4.99734E-001	0.00000E+000	-5.00025E-001	1.94442E-003	12	..........a	-327.66
	1440	1439	4.51487E-001	-4.99728E-001	0.00000E+000	-5.00025E-001	1.92516E-003	12	..........a	-327.66
	1446	1445	4.51315E-001	-4.99732E-001	0.00000E+000	-5.00025E-001	1.92252E-003	12	..........a	-327.66
	1452	1451	4.51160E-001	-4.99733E-001	0.00000E+000	-5.00025E-001	1.95026E-003	12	..........a	-327.66
	1458	1457	4.50980E-001	-4.99729E-001	0.00000E+000	-5.00025E-001	1.91872E-003	12	..........a	-327.66
	1464	1463	4.50802E-001	-4.99728E-001	0.00000E+000	-5.00025E-001	1.93352E-003	12	..........a	-327.66
	1470	1469	4.50621E-001	-4.99734E-001	0.00000E+000	-5.00025E-001	1.93437E-003	12	..........a	-327.66
	1476	1475	4.50435E-001	-4.99733E-001	0.00000E+000	-5.00025E-001	1.94127E-003	12	..........a	-327.66
	1482	1481	4.50277E-001	-4.99742E-001	0.00000E+000	-5.00025E-001	1.92741E-003	12	..........a	-327.66
	1488	1487	4.50105E-001	-4.99738E-001	0.00000E+000	-5.00025E-001	1.93827E-003	12	..........a	-327.66
	1494	1493	4.49938E-001	-4.99732E-001	0.00000E+000	-5.00025E-001	1.92757E-003	12	..........a	-327.66
	1500	1499	4.49784E-001	-4.99740E-001	0.00000E+000	-5.00025E-001	1.93392E-003	12	..........a	-327.66
	1506	1505	4.49593E-001	-4.99742E-001	0.00000E+000	-5.00025E-001	1.95166E-003	12	..........a	-327.66
	1512	1511	4.49419E-001	-4.99747E-001	0.00000E+000	-5.00025E-001	1.94142E-003	12	..........a	-327.66
	1518	1517	4.49238E-001	-4.99738E-001	0.00000E+000	-5.00025E-001	1.93024E-003	12	..........a	-327.66
	1524	1523	4.49066E-001	-4.99740E-001	0.00000E+000	-5.00025E-001	1.93202E-003	12	..........a	-327.66
	1530	1529	4.48902E-001	-4.99736E-001	0.00000E+000	-5.00025E-001	1.93219E-003	12	..........a	-327.66
	1536	1535	4.48711E-001	-4.99745E-001	0.00000E+000	-5.00025E-001	1.94211E-003	12	..........a	-327.66
	1542	1541	4.48560E-001	-4.99741E-001	0.00000E+000	-5.00025E-001	1.93559E-003	12	..........a	-327.66
	1548	1547	4.48386E-001	-4.99748E-001	0.00000E+000	-5.00025E-001	1.93441E-003	12	..........a	-327.66
	1554	1553	4.48202E-001	-4.99745E-001	0.00000E+000	-5.00025E-001	1.95241E-003	12	..........a	-327.66
	1560	1559	4.48047E-001	-4.99745E-001	0.00000E+000	-5.00025E-001	1.92472E-003	12	..........a	-327.66
	1566	1565	4.47877E-001	-4.99752E-001	0.00000E+000	-5.00025E-001	1.94446E-003	12	..........a	-327.66
	1572	1571	4.47717E-001	-4.99743E-001	0.00000E+000	-5.00025E-001	1.93881E-003	12	..........a	-327.66
	1578	1577	4.47561E-001	-4.99745E-001	0.00000E+000	-5.00025E-001	1.94666E-003	12	..........a	-327.66
	1584	1583	4.47360E-001	-4.99746E-001	0.00000E+000	-5.00025E-001	1.94421E-003	12	..........a	-327.66
	1590	1589	4.47211E-001	-4.99743E-001	0.00000E+000	-5.00025E-001	1.94576E-003	12	..........a	-327.66
	1596	1595	4.47026E-001	-4.99743E-001	0.00000E+000	-5.00025E-001	1.94417E-003	12	..........a	-327.66
	1602	1601	4.46843E-001	-4.99743E-001	0.00000E+000	-5.00025E-001	1.94392E-003	12	..........a	-327.66
	1608	1607	4.46674E-001	-4.99737E-001	0.00000E+000	-5.00025E-001	1.92746E-003	12	..........a	-327.66
	1614	1613	4.46486E-001	-4.99743E-001	0.00000E+000	-5.00025E-001	1.93297E-003	12	..........a	-327.66
	1620	1619	4.46311E-001	-4.99745E-001	0.00000E+000	-5.00025E-001	1.93406E-003	12	..........a	-327.66
	1626	1625	4.46154E-001	-4.99748E-001	0.00000E+000	-5.00025E-001	1.93054E-003	12	..........a	-327.66
	1632	1631	4.45968E-001	-4.99748E-001	0.00000E+000	-5.00025E-001	1.92899E-003	12	..........a	-327.66
	1638	1637	4.45781E-001	-4.99747E-001	0.00000E+000	-5.00025E-001	1.92464E-003	12	..........a	-327.66
	1644	1643	4.45616E-001	-4.99750E-001	0.00000E+000	-5.00025E-001	1.93037E-003	12	..........a	-327.66
	1650	1649	4.45405E-001	-4.99750E-001	0.00000E+000	-5.00025E-001	1.92897E-003	12	..........a	-327.66
	1656	1655	4.45254E-001	-4.99747E-001	0.00000E+000	-5.00025E-001	1.94112E-003	12	..........a	-327.66
	1662	1661	4.45069E-001	-4.99745E-001	0.00000E+000	-5.00025E-001	1.94174E-003	12	..........a	-327.66
	1668	1667	4.44897E-001	-4.99746E-001	0.00000E+000	-5.00025E-001	1.91884E-003	12	..........a	-327.66
	1674	1673	4.44729E-001	-4.99744E-001	0.00000E+000	-5.00025E-001	1.93626E-003	12	..........a	-327.66
	1680	1679	4.44529E-001	-4.99742E-001	0.00000E+000	-5.00025E-001	1.92477E-003	12	..........a	-327.66
	1686	1685	4.44354E-001	-4.99748E-001	0.00000E+000	-5.00025E-001	1.92632E-003	12	..........a	-327.66
	1692	1691	4.44174E-001	-4.99747E-001	0.00000E+000	-5.00025E-001	1.92761E-003	12	..........a	-327.66
	1698	1697	4.43970E-001	-4.99751E-001	0.00000E+000	-5.00025E-001	1.92692E-003	12	..........a	-327.66
	1704	1703	4.43812E-001	-4.99756E-001	0.00000E+000	-5.00025E-001	1.94117E-003	12	..........a	-327.66
	1710	1709	4.43622E-001	-4.99757E-001	0.00000E+000	-5.00025E-001	1.94472E-003	12	..........a	-327.66
	1716	1715	4.43433E-001	-4.99752E-001	0.00000E+000	-5.00025E-001	1.93892E-003	12	..........a	-327.66
	1722	1721	4.43260E-001	-4.99756E-001	0.00000E+000	-5.00025E-001	1.94071E-003	12	..........a	-327.66
	1728	1727	4.43067E-001	-4.99748E-001	0.00000E+000	-5.00025E-001	1.93886E-003	12	..........a	-327.66
	1734	1733	4.42891E-001	-4.99757E-001	0.00000E+000	-5.00025E-001	1.91652E-003	12	..........a	-327.66
	1740	1739	4.42698E-001	-4.99754E-001	0.00000E+000	-5.00025E-001	1.93381E-003	12	..........a	-327.66
	1746	1745	4.42510E-001	-4.99752E-001	0.00000E+000	-5.00025E-001	1.92492E-003	12	..........a	-327.66
	1752	1751	4.42335E-001	-4.99753E-001	0.00000E+000	-5.00025E-001	1.93161E-003	12	..........a	-327.66
	1758	1757	4.42160E-001	-4.99758E-001	0.00000E+000	-5.00025E-001	1.93869E-003	12	..........a	-327.66
	1764	1763	4.41962E-001	-4.99755E-001	0.00000E+000	-5.00025E-001	1.92444E-003	12	..........a	-327.66
	1770	1769	4.41788E-001	-4.99760E-001	0.00000E+000	-5.00025E-001	1.94927E-003	12	..........a	-327.66
	1776	1775	4.41559E-001	-4.99755E-001	0.00000E+000	-5.00025E-001	1.95116E-003	12	..........a	-327.66
	1782	1781	4.41371E-001	-4.99752E-001	0.00000E+000	-5.00025E-001	1.93514E-003	12	..........a	-327.66
	1788	1787	4.31806E-001	-4.99758E-001	0.00000E+000	-5.00025E-001	1.93532E-003	12	..........a	-327.66
	1794	1793	4.33804E-001	-4.99764E-001	0.00000E+000	-5.00025E-001	1.92794E-003	12	..........a	-327.66
	1800	1799	4.33705E-001	-4.99762E-001	0.00000E+000	-5.00025E-001	1.94851E-003	12	..........a	-327.66
	1806	1805	4.34196E-001	-4.99761E-001	0.00000E+000	-5.00025E-001	1.92941E-003	12	..........a	-327.66
	1812	1811	4.34247E-001	-4.99754E-001	0.00000E+000	-5.00025E-001	1.93701E-003	12	..........a	-327.66
	1818	1817	4.34465E-001	-4.99765E-001	0.00000E+000	-5.00025E-001	1.93694E-003	12	..........a	-327.66
	1824	1823	4.34502E-001	-4.99761E-001	0.00000E+000	-5.00025E-001	1.94342E-003	12	..........a	-327.66
	1830	1829	4.34457E-001	-4.99754E-001	0.00000E+000	-5.00025E-001	1.92941E-003	12	..........a	-327.66
	1836	1835	4.34377E-001	-4.99763E-001	0.00000E+000	-5.00025E-001	1.93589E-003	12	..........a	-327.66
	1842	1841	4.34356E-001	-4.99760E-001	0.00000E+000	-5.00025E-001	1.92556E-003	12	..........a	-327.66
	1848	1847	4.34166E-001	-4.99757E-001	0.00000E+000	-5.00025E-001	1.92872E-003	12	..........a	-327.66
	1854	1853	4.33964E-001	-4.99762E-001	0.00000E+000	-5.00025E-001	1.93726E-003	12	..........a	-327.66
	1860	1859	4.33824E-001	-4.99763E-001	0.00000E+000	-5.00025E-001	1.94287E-003	12	..........a	-327.66
	1866	1865	4.33710E-001	-4.99764E-001	0.00000E+000	-5.00025E-001	1.94441E-003	12	..........a	-327.66
	1872	1871	4.33601E-001	-4.99763E-001	0.00000E+000	-5.00025E-001	1.93091E-003	12	..........a	-327.66
	1878	1877	4.33473E-001	-4.99761E-001	0.00000E+000	-5.00025E-001	1.94007E-003	12	..........a	-327.66
	1884	1883	4.33384E-001	-4.99763E-001	0.00000E+000	-5.00025E-001	1.93112E-003	12	..........a	-327.66
	1890	1889	4.33238E-001	-4.99761E-001	0.00000E+000	-5.00025E-001	1.92359E-003	12	..........a	-327.66
	1896	1895	4.33129E-001	-4.99761E-001	0.00000E+000	-5.00025E-001	1.92827E-003	12	..........a	-327.66
	1902	1901	4.33023E-001	-4.99764E-001	0.00000E+000	-5.00025E-001	1.94221E-003	12	..........a	-327.66
	1908	1907	4.32880E-001	-4.99767E-001	0.00000E+000	-5.00025E-001	1.94002E-003	12	..........a	-327.66
	1914	1913	4.32759E-001	-4.99766E-001	0.00000E+000	-5.00025E-001	1.93716E-003	12	..........a	-327.66
	1920	1919	4.32570E-001	-4.99765E-001	0.00000E+000	-5.00025E-001	1.94216E-003	12	..........a	-327.66
	1926	1925	4.32377E-001	-4.99766E-001	0.00000E+000	-5.00025E-001	1.94637E-003	12	..........a	-327.66
	1932	1931	4.32194E-001	-4.99755E-001	0.00000E+000	-5.00025E-001	1.92204E-003	12	..........a	-327.66
	1938	1937	4.32003E-001	-4.99761E-001	0.00000E+000	-5.00025E-001	1.94284E-003	12	..........a	-327.66
	1944	1943	4.31827E-001	-4.99763E-001	0.00000E+000	-5.00025E-001	1.93767E-003	12	..........a	-327.66
	1950	1949	4.31631E-001	-4.99758E-001	0.00000E+000	-5.00025E-001	1.92822E-003	12	..........a	-327.66
	1956	1955	4.31462E-001	-4.99763E-001	0.00000E+000	-5.00025E-001	1.93217E-003	12	..........a	-327.66
	1962	1961	4.31278E-001	-4.99755E-001	0.00000E+000	-5.00025E-001	1.93122E-003	12	..........a	-327.66
	1968	1967	4.31112E-001	-4.99761E-001	0.00000E+000	-5.00025E-001	1.93466E-003	12	..........a	-327.66
	1974	1973	4.30915E-001	-4.99769E-001	0.00000E+000	-5.00025E-001	1.94246E-003	12	..........a	-327.66
	1980	1979	4.30719E-001	-4.99760E-001	0.00000E+000	-5.00025E-001	1.93084E-003	12	..........a	-327.66
	1986	1985	4.30507E-001	-4.99761E-001	0.00000E+000	-5.00025E-001	1.92611E-003	12	..........a	-327.66
	1992	1991	4.30280E-001	-4.99763E-001	0.00000E+000	-5.00025E-001	1.92147E-003	12	..........a	-327.66
	1998	1997	4.30033E-001	-4.99765E-001	0.00000E+000	-5.00025E-001	1.93851E-003	12	..........a	-327.66
	2004	2003	4.29748E-001	-4.99762E-001	0.00000E+000	-5.00025E-001	1.93382E-003	12	..........a	-327.66
	2010	2009	4.29565E-001	-4.99765E-001	0.00000E+000	-5.00025E-001	1.93931E-003	12	..........a	-327.66
	2016	2015	4.29327E-001	-4.99769E-001	0.00000E+000	-5.00025E-001	1.94602E-003	12	..........a	-327.66
	2022	2021	4.29099E-001	-4.99770E-001	0.00000E+000	-5.00025E-001	1.94191E-003	12	..........a	-327.66
	2028	2027	4.28852E-001	-4.99768E-001	0.00000E+000	-5.00025E-001	1.94759E-003	12	..........a	-327.66
	2034	2033	4.28611E-001	-4.99769E-001	0.00000E+000	-5.00025E-001	1.93767E-003	12	..........a	-327.66
	2040	2039	4.28340E-001	-4.99767E-001	0.00000E+000	-5.00025E-001	1.93522E-003	12	..........a	-327.66
	2046	2045	4.28097E-001	-4.99771E-001	0.00000E+000	-5.00025E-001	1.94097E-003	12	..........a	-327.66
	2052	2051	4.27854E-001	-4.99767E-001	0.00000E+000	-5.00025E-001	1.93767E-003	12	..........a	-327.66
	2058	2057	4.27605E-001	-4.99767E-001	0.00000E+000	-5.00025E-001	1.93574E-003	12	..........a	-327.66
	2064	2063	4.27374E-001	-4.99767E-001	0.00000E+000	-5.00025E-001	1.92171E-003	12	..........a	-327.66
	2070	2069	4.27145E-001	-4.99768E-001	0.00000E+000	-5.00025E-001	1.93342E-003	12	..........a	-327.66
	2076	2075	4.26875E-001	-4.99761E-001	0.00000E+000	-5.00025E-001	1.92479E-003	12	..........a	-327.66
	2082	2081	4.26504E-001	-4.99767E-001	0.00000E+000	-5.00025E-001	1.92022E-003	12	..........a	-327.66
	2088	2087	4.26136E-001	-4.99768E-001	0.00000E+000	-5.00025E-001	1.92999E-003	12	..........a	-327.66
	2094	2093	4.25644E-001	-4.99766E-001	0.00000E+000	-5.00025E-001	1.93176E-003	12	..........a	-327.66
	2100	2099	4.25164E-001	-4.99764E-001	0.00000E+000	-5.00025E-001	1.93244E-003	12	..........a	-327.66
	2106	2105	4.24758E-001	-4.99763E-001	0.00000E+000	-5.00025E-001	1.91879E-003	12	..........a	-327.66
	2112	2111	4.24689E-001	-4.99766E-001	0.00000E+000	-5.00025E-001	1.92876E-003	12	..........a	-327.66
	2118	2117	4.24724E-001	-4.99768E-001	0.00000E+000	-5.00025E-001	1.92589E-003	12	..........a	-327.66
	2124	2123	4.24092E-001	-4.99762E-001	0.00000E+000	-5.00025E-001	1.93622E-003	12	..........a	-327.66
	2130	2129	4.23595E-001	-4.99765E-001	0.00000E+000	-5.00025E-001	1.92694E-003	12	..........a	-327.66
	2136	2135	4.23283E-001	-4.99764E-001	0.00000E+000	-5.00025E-001	1.92431E-003	12	..........a	-327.66
	2142	2141	4.22831E-001	-4.99772E-001	0.00000E+000	-5.00025E-001	1.93991E-003	12	..........a	-327.66
	2148	2147	4.22365E-001	-4.99765E-001	0.00000E+000	-5.00025E-001	1.94912E-003	12	..........a	-327.66
	2154	2153	4.21889E-001	-4.99764E-001	0.00000E+000	-5.00025E-001	1.93936E-003	12	..........a	-327.66
	2160	2159	4.21563E-001	-4.99772E-001	0.00000E+000	-5.00025E-001	1.94301E-003	12	..........a	-327.66
	2166	2165	4.21052E-001	-4.99766E-001	0.00000E+000	-5.00025E-001	1.93427E-003	12	..........a	-327.66
	2172	2171	4.20228E-001	-4.99766E-001	0.00000E+000	-5.00025E-001	1.93197E-003	12	..........a	-327.66
	2178	2177	4.19656E-001	-4.99768E-001	0.00000E+000	-5.00025E-001	1.93231E-003	12	..........a	-327.66
	2184	2183	4.19313E-001	-4.99769E-001	0.00000E+000	-5.00025E-001	1.93034E-003	12	..........a	-327.66
	2190	2189	4.18475E-001	-4.99764E-001	0.00000E+000	-5.00025E-001	1.91199E-003	12	..........a	-327.66
	2196	2195	4.17630E-001	-4.99762E-001	0.00000E+000	-5.00025E-001	1.92982E-003	12	..........a	-327.66
	2202	2201	4.17015E-001	-4.99766E-001	0.00000E+000	-5.00025E-001	1.93639E-003	12	..........a	-327.66
	2208	2207	4.16653E-001	-4.99771E-001	0.00000E+000	-5.00025E-001	1.93296E-003	12	..........a	-327.66
	2214	2213	4.15550E-001	-4.99767E-001	0.00000E+000	-5.00025E-001	1.92479E-003	12	..........a	-327.66
	2220	2219	4.15099E-001	-4.99770E-001	0.00000E+000	-5.00025E-001	1.94739E-003	12	..........a	-327.66
	2226	2225	4.14184E-001	-4.99774E-001	0.00000E+000	-5.00025E-001	1.92039E-003	12	..........a	-327.66
	2232	2231	4.13180E-001	-4.99767E-001	0.00000E+000	-5.00025E-001	1.91429E-003	12	..........a	-327.66
	2238	2237	4.11964E-001	-4.99770E-001	0.00000E+000	-5.00025E-001	1.92622E-003	12	..........a	-327.66
	2244	2243	4.11281E-001	-4.99766E-001	0.00000E+000	-5.00025E-001	1.93846E-003	12	..........a	-327.66
	2250	2249	4.10018E-001	-4.99766E-001	0.00000E+000	-5.00025E-001	1.92631E-003	12	..........a	-327.66
	2256	2255	4.08403E-001	-4.99766E-001	0.00000E+000	-5.00025E-001	1.93142E-003	12	..........a	-327.66
	2262	2261	4.06921E-001	-4.99765E-001	0.00000E+000	-5.00025E-001	1.93339E-003	12	..........a	-327.66
	2268	2267	4.05504E-001	-4.99762E-001	0.00000E+000	-5.00025E-001	1.92124E-003	12	..........a	-327.66
	2274	2273	4.04136E-001	-4.99761E-001	0.00000E+000	-5.00025E-001	1.93809E-003	12	..........a	-327.66
	2280	2279	4.02979E-001	-4.99764E-001	0.00000E+000	-5.00025E-001	1.93437E-003	12	..........a	-327.66
	2286	2285	4.01439E-001	-4.99765E-001	0.00000E+000	-5.00025E-001	1.92982E-003	12	..........a	-327.66
	2292	2291	3.99858E-001	-4.99766E-001	0.00000E+000	-5.00025E-001	1.92949E-003	12	..........a	-327.66
	2298	2297	3.99034E-001	-4.99760E-001	0.00000E+000	-5.00025E-001	1.93019E-003	12	..........a	-327.66
	2304	2303	3.98096E-001	-4.99764E-001	0.00000E+000	-5.00025E-001	1.92614E-003	12	..........a	-327.66
	2310	2309	3.96072E-001	-4.99774E-001	0.00000E+000	-5.00025E-001	1.94859E-003	12	..........a	-327.66
	2316	2315	3.93147E-001	-4.99772E-001	0.00000E+000	-5.00025E-001	1.93024E-003	12	..........a	-327.66
	2322	2321	3.87796E-001	-4.99764E-001	0.00000E+000	-5.00025E-001	1.93842E-003	12	..........a	-327.66
	2328	2327	3.86174E-001	-4.99768E-001	0.00000E+000	-5.00025E-001	1.93517E-003	12	..........a	-327.66
	2334	2333	3.80395E-001	-4.99772E-001	0.00000E+000	-5.00025E-001	1.93062E-003	12	..........a	-327.66
	2340	2339	3.77215E-001	-4.99772E-001	0.00000E+000	-5.00025E-001	1.92812E-003	12	..........a	-327.66
	2346	2345	3.73644E-001	-4.99774E-001	0.00000E+000	-5.00025E-001	1.94361E-003	12	..........a	-327.66
	2352	2351	3.70546E-001	-4.99774E-001	0.00000E+000	-5.00025E-001	1.95101E-003	12	..........a	-327.66
	2358	2357	3.65517E-001	-4.99773E-001	0.00000E+000	-5.00025E-001	1.92974E-003	12	..........a	-327.66
	2364	2363	3.55789E-001	-4.99765E-001	0.00000E+000	-5.00025E-001	1.93706E-003	12	..........a	-327.66
	2370	2369	3.49235E-001	-4.99763E-001	0.00000E+000	-5.00025E-001	1.92302E-003	12	..........a	-327.66
	2376	2375	3.37472E-001	-4.99766E-001	0.00000E+000	-5.00025E-001	1.93709E-003	12	..........a	-327.66
	2382	2381	3.28651E-001	-4.99767E-001	0.00000E+000	-5.00025E-001	1.93954E-003	12	..........a	-327.66
	2388	2387	3.24282E-001	-4.99769E-001	0.00000E+000	-5.00025E-001	1.92857E-003	12	..........a	-327.66
	2394	2393	3.10502E-001	-4.99776E-001	0.00000E+000	-5.00025E-001	1.94897E-003	12	..........a	-327.66
	2400	2399	2.97462E-001	-4.99768E-001	0.00000E+000	-5.00025E-001	1.94269E-003	12	..........a	-327.66
	2406	2405	2.76274E-001	-4.99766E-001	0.00000E+000	-5.00025E-001	1.92596E-003	12	..........a	-327.66
	2412	2411	2.75514E-001	-4.99768E-001	0.00000E+000	-5.00025E-001	1.92922E-003	12	..........a	-327.66
	2418	2417	2.65217E-001	-4.99771E-001	0.00000E+000	-5.00025E-001	1.93634E-003	12	..........a	-327.66
	2424	2423	2.48141E-001	-4.99767E-001	0.00000E+000	-5.00025E-001	1.93857E-003	12	..........a	-327.66
	2430	2429	2.19788E-001	-4.99770E-001	0.00000E+000	-5.00025E-001	1.94077E-003	12	..........a	-327.66
	2436	2435	1.11935E-001	-4.99761E-001	0.00000E+000	-5.00025E-001	1.93756E-003	12	..........a	-327.66
	2442	2441	1.22800E-001	-4.99764E-001	0.00000E+000	-5.00025E-001	1.92386E-003	12	..........a	-327.66
	2448	2447	8.46952E-002	-4.99760E-001	0.00000E+000	-5.00025E-001	1.91896E-003	12	..........a	-327.66
	2454	2453	5.44890E-002	-4.99769E-001	0.00000E+000	-5.00025E-001	1.93757E-003	12	..........a	-327.66
	2460	2459	-3.33669E-004	-4.99772E-001	0.00000E+000	-5.00025E-001	1.94022E-003	12	..........a	-327.66
	2466	2465	-1.98024E-002	-4.99774E-001	0.00000E+000	-5.00025E-001	1.94109E-003	12	..........a	-327.66
	2472	2471	-1.49098E-002	-4.99766E-001	0.00000E+000	-5.00025E-001	1.94699E-003	12	..........a	-327.66
	2478	2477	-7.58130E-003	-4.99766E-001	0.00000E+000	-5.00025E-001	1.93957E-003	12	..........a	-327.66
	2484	2483	-1.41795E-002	-4.99764E-001	0.00000E+000	-5.00025E-001	1.93459E-003	12	..........a	-327.66
	2490	2489	-2.88291E-002	-4.99770E-001	0.00000E+000	-5.00025E-001	1.93642E-003	12	..........a	-327.66
	2496	2495	-5.34647E-002	-4.99770E-001	0.00000E+000	-5.00025E-001	1.93731E-003	12	..........a	-327.66